time,ax,ay,az
0.000000000E0,-1.779907227E0,9.358474731E0,2.763870239E0
2.502442000E-3,-1.720046997E0,9.420730591E0,2.790206909E0
5.004883000E-3,-1.741592407E0,9.327362061E0,2.802185059E0
7.507325000E-3,-1.708084106E0,9.207641602E0,2.809371948E0
1.003086600E-2,-1.715255737E0,9.219619751E0,2.835708618E0
1.253330700E-2,-1.717651367E0,9.186096191E0,2.840484619E0
1.502935500E-2,-1.739196777E0,9.145401001E0,2.857254028E0
1.753179600E-2,-1.763137817E0,9.176513672E0,2.826126099E0
2.003423800E-2,-1.796661377E0,9.157363892E0,2.773452759E0
2.253667900E-2,-1.770324707E0,9.233978271E0,2.847671509E0
2.503912000E-2,-1.760757446E0,9.193283081E0,2.857254028E0
2.754156200E-2,-1.779907227E0,9.255523682E0,2.885986328E0
3.004400300E-2,-1.818206787E0,9.327362061E0,2.869216919E0
3.254644500E-2,-1.839752197E0,9.351303101E0,2.864440918E0
3.504888600E-2,-1.851730347E0,9.384811401E0,2.905136108E0
3.755132700E-2,-1.811035156E0,9.411148071E0,2.897949219E0
4.005376900E-2,-1.861312866E0,9.420730591E0,2.852462769E0
4.255621000E-2,-1.894821167E0,9.391998291E0,2.864440918E0
4.505865200E-2,-1.863708496E0,9.420730591E0,2.842880249E0
4.759161100E-2,-1.887649536E0,9.403976440E0,2.902740479E0
5.009405200E-2,-1.918762207E0,9.411148071E0,2.914718628E0
5.259649300E-2,-1.952285767E0,9.391998291E0,2.919494629E0
5.509893500E-2,-1.947494507E0,9.384811401E0,2.897949219E0
5.760137600E-2,-1.981018066E0,9.348907471E0,2.869216919E0
6.010381800E-2,-1.949890137E0,9.375244141E0,2.864440918E0
6.260625900E-2,-1.952285767E0,9.408752441E0,2.883590698E0
6.510870000E-2,-1.973831177E0,9.391998291E0,2.871612549E0
6.761114200E-2,-2.004959106E0,9.425521851E0,2.847671509E0
7.008306600E-2,-1.985809326E0,9.427917480E0,2.900344849E0
7.258550700E-2,-1.949890137E0,9.384811401E0,2.917098999E0
7.508794900E-2,-1.964263916E0,9.401580811E0,2.890762329E0
7.759039000E-2,-1.964263916E0,9.418334961E0,2.847671509E0
8.009283100E-2,-1.937927246E0,9.425521851E0,2.907531738E0
8.259527300E-2,-1.949890137E0,9.389602661E0,2.907531738E0
8.509771400E-2,-1.933135986E0,9.413543701E0,2.878799438E0
8.760015600E-2,-1.892425537E0,9.389602661E0,2.850067139E0
9.010259700E-2,-1.868484497E0,9.339324951E0,2.838104248E0
9.260503800E-2,-1.894821167E0,9.317779541E0,2.840484619E0
9.510748000E-2,-1.909194946E0,9.320175171E0,2.876403809E0
9.760992100E-2,-1.918762207E0,9.336929321E0,2.862045288E0
1.000818450E-1,-1.902008057E0,9.332138062E0,2.790206909E0
1.026148040E-1,-1.930740356E0,9.324966431E0,2.780639648E0
1.051172450E-1,-1.870880127E0,9.336929321E0,2.816543579E0
1.076196870E-1,-1.890029907E0,9.291442871E0,2.821334839E0
1.101221280E-1,-1.904403687E0,9.332138062E0,2.756698608E0
1.126245700E-1,-1.894821167E0,9.310592651E0,2.730361938E0
1.151270110E-1,-1.849334717E0,9.305801392E0,2.756698608E0
1.176294520E-1,-1.849334717E0,9.274688721E0,2.826126099E0
1.201318940E-1,-1.854125977E0,9.277084351E0,2.854858398E0
1.226343350E-1,-1.880462646E0,9.324966431E0,2.821334839E0
1.251367770E-1,-1.892425537E0,9.329742432E0,2.821334839E0
1.276392180E-1,-1.916366577E0,9.322570801E0,2.766265869E0
1.301416590E-1,-1.913986206E0,9.332138062E0,2.763870239E0
1.326441010E-1,-1.930740356E0,9.344116211E0,2.766265869E0
1.351465420E-1,-1.925949097E0,9.406356812E0,2.785430908E0
1.376489840E-1,-1.923553467E0,9.384811401E0,2.833312988E0
1.401514250E-1,-1.887649536E0,9.420730591E0,2.802185059E0
1.426538660E-1,-1.913986206E0,9.482971191E0,2.814147949E0
1.451563080E-1,-1.928344727E0,9.425521851E0,2.785430908E0
1.476587490E-1,-1.966644287E0,9.466217041E0,2.771057129E0
1.501611910E-1,-1.947494507E0,9.466217041E0,2.802185059E0
1.526636320E-1,-1.935531616E0,9.411148071E0,2.797393799E0
1.551660740E-1,-1.947494507E0,9.403976440E0,2.823730469E0
1.576685150E-1,-1.954681396E0,9.396789551E0,2.818939209E0
1.601709560E-1,-1.952285767E0,9.401580811E0,2.826126099E0
1.626733980E-1,-1.952285767E0,9.401580811E0,2.826126099E0
1.651758390E-1,-1.978622437E0,9.375244141E0,2.802185059E0
1.676782810E-1,-1.969039917E0,9.394393921E0,2.794998169E0
1.701807220E-1,-1.928344727E0,9.423126221E0,2.799789429E0
1.726526460E-1,-1.940322876E0,9.444671631E0,2.749511719E0
1.751550870E-1,-1.945098877E0,9.442276001E0,2.775848389E0
1.776575290E-1,-1.928344727E0,9.499740601E0,2.775848389E0
1.801599700E-1,-1.887649536E0,9.528472900E0,2.754302979E0
1.826624110E-1,-1.873275757E0,9.559585571E0,2.763870239E0
1.851648530E-1,-1.906799316E0,9.564376831E0,2.711196899E0
1.876672940E-1,-1.892425537E0,9.557205200E0,2.720779419E0
1.901697360E-1,-1.868484497E0,9.571563721E0,2.687255859E0
1.926721770E-1,-1.849334717E0,9.581146240E0,2.644165039E0
1.951746180E-1,-1.897216797E0,9.542831421E0,2.656143188E0
1.976770600E-1,-1.904403687E0,9.535644531E0,2.656143188E0
2.001795010E-1,-1.916366577E0,9.528472900E0,2.706420898E0
2.026819430E-1,-1.909194946E0,9.511703491E0,2.715988159E0
2.051843840E-1,-1.947494507E0,9.530868530E0,2.742324829E0
2.076868250E-1,-1.942703247E0,9.514099121E0,2.756698608E0
2.101892670E-1,-1.942703247E0,9.482971191E0,2.778244019E0
2.126917080E-1,-1.937927246E0,9.473403931E0,2.715988159E0
2.151941500E-1,-1.957077026E0,9.514099121E0,2.720779419E0
2.176965910E-1,-1.952285767E0,9.497344971E0,2.704025269E0
2.201685150E-1,-1.947494507E0,9.463821411E0,2.677688599E0
2.226709560E-1,-1.940322876E0,9.480590820E0,2.692047119E0
2.252039150E-1,-1.923553467E0,9.449462891E0,2.625015259E0
2.277063570E-1,-1.882858276E0,9.480590820E0,2.598678589E0
2.302087980E-1,-1.904403687E0,9.475799561E0,2.641769409E0
2.327112400E-1,-1.925949097E0,9.485366821E0,2.648956299E0
2.352136810E-1,-1.894821167E0,9.497344971E0,2.615432739E0
2.377161220E-1,-1.940322876E0,9.459030151E0,2.648956299E0
2.402185640E-1,-1.992980957E0,9.447067261E0,2.596282959E0
2.427210050E-1,-1.973831177E0,9.451858521E0,2.572341919E0
2.452234470E-1,-1.961868286E0,9.451858521E0,2.581924438E0
2.477258880E-1,-1.925949097E0,9.451858521E0,2.615432739E0
2.502283290E-1,-1.942703247E0,9.415939331E0,2.641769409E0
2.527307710E-1,-1.925949097E0,9.420730591E0,2.596282959E0
2.552332120E-1,-1.942703247E0,9.415939331E0,2.598678589E0
2.577356540E-1,-1.957077026E0,9.384811401E0,2.613037109E0
2.602380950E-1,-1.892425537E0,9.456649780E0,2.665710449E0
2.627405360E-1,-1.909194946E0,9.432693481E0,2.646560669E0
2.652429780E-1,-1.923553467E0,9.384811401E0,2.689651489E0
2.677454190E-1,-1.935531616E0,9.375244141E0,2.706420898E0
2.702173430E-1,-1.923553467E0,9.427917480E0,2.744720459E0
2.727197840E-1,-1.940322876E0,9.437484741E0,2.785430908E0
2.752222260E-1,-1.947494507E0,9.463821411E0,2.692047119E0
2.777246670E-1,-1.952285767E0,9.466217041E0,2.692047119E0
2.802271090E-1,-1.904403687E0,9.447067261E0,2.682479858E0
2.827295500E-1,-1.892425537E0,9.480590820E0,2.632202148E0
2.852319910E-1,-1.890029907E0,9.482971191E0,2.548400879E0
2.877344330E-1,-1.851730347E0,9.471008301E0,2.586700439E0
2.902368740E-1,-1.846939087E0,9.468612671E0,2.567550659E0
2.927393160E-1,-1.863708496E0,9.540435791E0,2.613037109E0
2.952417570E-1,-1.904403687E0,9.502136230E0,2.574737549E0
2.977441990E-1,-1.902008057E0,9.485366821E0,2.601074219E0
3.002466400E-1,-1.858917236E0,9.514099121E0,2.641769409E0
3.027490810E-1,-1.885253906E0,9.511703491E0,2.644165039E0
3.052515230E-1,-1.911590576E0,9.487762451E0,2.632202148E0
3.077539640E-1,-1.923553467E0,9.480590820E0,2.648956299E0
3.102564060E-1,-1.916366577E0,9.442276001E0,2.680084229E0
3.127588470E-1,-1.870880127E0,9.437484741E0,2.668106079E0
3.152612880E-1,-1.863708496E0,9.444671631E0,2.699234009E0
3.177637300E-1,-1.846939087E0,9.403976440E0,2.639373779E0
3.202661710E-1,-1.897216797E0,9.372848511E0,2.553192139E0
3.227686130E-1,-1.973831177E0,9.401580811E0,2.572341919E0
3.252710540E-1,-2.004959106E0,9.420730591E0,2.498123169E0
3.278040130E-1,-2.045654297E0,9.459030151E0,2.459808350E0
3.303064540E-1,-2.105514526E0,9.511703491E0,2.409530640E0
3.328088960E-1,-2.131851196E0,9.506927490E0,2.404739380E0
3.353113370E-1,-2.160583496E0,9.600296021E0,2.320953369E0
3.378137790E-1,-2.174942017E0,9.629028320E0,2.270675659E0
3.403162200E-1,-2.191711426E0,9.629028320E0,2.218002319E0
3.428186610E-1,-2.263534546E0,9.617050171E0,2.285034180E0
3.453211030E-1,-2.203674316E0,9.669723511E0,2.292221069E0
3.478235440E-1,-2.203674316E0,9.696060181E0,2.308975220E0
3.503259860E-1,-2.225219727E0,9.712829590E0,2.354461670E0
3.528284270E-1,-2.151000977E0,9.655364990E0,2.474182129E0
3.553308680E-1,-2.105514526E0,9.686492920E0,2.483749390E0
3.578333100E-1,-2.045654297E0,9.698455811E0,2.531646729E0
3.603357510E-1,-1.985809326E0,9.650573730E0,2.636978149E0
3.628381930E-1,-2.007354736E0,9.633819580E0,2.526855469E0
3.653406340E-1,-1.933135986E0,9.648178101E0,2.402359009E0
3.678430750E-1,-1.923553467E0,9.731979370E0,2.380798340E0
3.703455170E-1,-1.882858276E0,9.751129150E0,2.342498779E0
3.728479580E-1,-1.830184937E0,9.715209961E0,2.352081299E0
3.753198820E-1,-1.777511597E0,9.748733521E0,2.402359009E0
3.778223240E-1,-1.827789307E0,9.748733521E0,2.435867310E0
3.803247650E-1,-1.777511597E0,9.789443970E0,2.433471680E0
3.828272060E-1,-1.753570557E0,9.820556641E0,2.459808350E0
3.853296480E-1,-1.722442627E0,9.791824341E0,2.455032349E0
3.878320890E-1,-1.722442627E0,9.796615601E0,2.478973389E0
3.903345310E-1,-1.679351807E0,9.796615601E0,2.481353760E0
3.928369720E-1,-1.653015137E0,9.703247070E0,2.404739380E0
3.953394130E-1,-1.681747437E0,9.674514771E0,2.404739380E0
3.978418550E-1,-1.696105957E0,9.672119141E0,2.438262939E0
4.003442960E-1,-1.688919067E0,9.643386841E0,2.316162109E0
4.028467380E-1,-1.746383667E0,9.662536621E0,2.323348999E0
4.053491790E-1,-1.806243896E0,9.617050171E0,2.256301880E0
4.078516200E-1,-1.777511597E0,9.578750610E0,2.213211060E0
4.103540620E-1,-1.765533447E0,9.585922241E0,2.203628540E0
4.128565030E-1,-1.727233887E0,9.607482910E0,2.196456909E0
4.153589450E-1,-1.691314697E0,9.602691650E0,2.206024170E0
4.178613860E-1,-1.691314697E0,9.569168091E0,2.165328979E0
4.203638270E-1,-1.669769287E0,9.550018311E0,2.184478760E0
4.228662690E-1,-1.645828247E0,9.566772461E0,2.261093140E0
4.253687100E-1,-1.645828247E0,9.571563721E0,2.253906250E0
4.278711520E-1,-1.676956177E0,9.650573730E0,2.215606689E0
4.303735930E-1,-1.727233887E0,9.696060181E0,2.136596680E0
4.328760340E-1,-1.811035156E0,9.810989380E0,2.038436890E0
4.353784760E-1,-1.842147827E0,9.921112061E0,2.004913330E0
4.378809170E-1,-1.887649536E0,1.000251770E1,1.894775391E0
4.403833590E-1,-1.894821167E0,1.011984253E1,1.846893311E0
4.428858000E-1,-1.911590576E0,1.012940979E1,1.791824341E0
4.453882410E-1,-1.945098877E0,1.018208313E1,1.753524780E0
4.478906830E-1,-1.964263916E0,1.020841980E1,1.832534790E0
4.503931240E-1,-1.997772217E0,1.019645691E1,1.837326050E0
4.528955660E-1,-2.004959106E0,1.020362854E1,1.868438721E0
4.553674900E-1,-1.954681396E0,1.020123291E1,1.906753540E0
4.578699310E-1,-1.923553467E0,1.014617920E1,1.899566650E0
4.603723720E-1,-1.856521606E0,1.015335083E1,1.933090210E0
4.628748140E-1,-1.784698486E0,1.012461853E1,1.899566650E0
4.653772550E-1,-1.741592407E0,1.008631897E1,1.933090210E0
4.678796970E-1,-1.710464478E0,9.997726440E0,1.952239990E0
4.703821380E-1,-1.662582397E0,9.916336060E0,1.992950439E0
4.728845790E-1,-1.645828247E0,9.868438721E0,2.103073120E0
4.753870210E-1,-1.614700317E0,9.775070190E0,2.220397949E0
4.778894620E-1,-1.583572388E0,9.676910400E0,2.273071289E0
4.803919040E-1,-1.552459717E0,9.554809570E0,2.304183960E0
4.828943450E-1,-1.566818237E0,9.492553711E0,2.282638550E0
4.853967860E-1,-1.540481567E0,9.485366821E0,2.198852539E0
4.878992280E-1,-1.471054077E0,9.394393921E0,2.196456909E0
4.904016690E-1,-1.475845337E0,9.327362061E0,2.138992310E0
4.929041110E-1,-1.492599487E0,9.298629761E0,2.045623779E0
4.954065520E-1,-1.483016968E0,9.253128052E0,2.002517700E0
4.979089930E-1,-1.468658447E0,9.253128052E0,2.000122070E0
5.004114350E-1,-1.466262817E0,9.260314941E0,2.062377930E0
5.029138760E-1,-1.538085938E0,9.265106201E0,1.995330811E0
5.054163180E-1,-1.617095947E0,9.279464722E0,1.966613770E0
5.079187590E-1,-1.662582397E0,9.327362061E0,2.000122070E0
5.104212000E-1,-1.688919067E0,9.312988281E0,1.952239990E0
5.129236420E-1,-1.698501587E0,9.358474731E0,1.961822510E0
5.154260830E-1,-1.691314697E0,9.348907471E0,2.040832520E0
5.179285250E-1,-1.729629517E0,9.375244141E0,2.057586670E0
5.204309660E-1,-1.717651367E0,9.372848511E0,2.081527710E0
5.229028900E-1,-1.727233887E0,9.353698730E0,2.055191040E0
5.254053310E-1,-1.679351807E0,9.399185181E0,2.031250000E0
5.279077730E-1,-1.705688477E0,9.415939331E0,2.014495850E0
5.304102140E-1,-1.703292847E0,9.401580811E0,2.012100220E0
5.329126560E-1,-1.660186768E0,9.437484741E0,1.945053101E0
5.354150970E-1,-1.643432617E0,9.423126221E0,1.976181030E0
5.379175380E-1,-1.664978027E0,9.432693481E0,2.009704590E0
5.404199800E-1,-1.619491577E0,9.509307861E0,2.000122070E0
5.429224210E-1,-1.669769287E0,9.492553711E0,1.949844360E0
5.454248630E-1,-1.679351807E0,9.447067261E0,1.959426880E0
5.479273040E-1,-1.674560547E0,9.439880371E0,1.935485840E0
5.504297450E-1,-1.621887207E0,9.485366821E0,2.033645630E0
5.529321870E-1,-1.566818237E0,9.502136230E0,2.124618530E0
5.554346280E-1,-1.468658447E0,9.478195190E0,2.177291870E0
5.579370700E-1,-1.384857178E0,9.528472900E0,2.320953369E0
5.604395110E-1,-1.315429688E0,9.516494751E0,2.335311890E0
5.629419520E-1,-1.317825317E0,9.516494751E0,2.277847290E0
5.654443940E-1,-1.325012207E0,9.471008301E0,2.206024170E0
5.679468350E-1,-1.346557617E0,9.461425781E0,2.031250000E0
5.704492770E-1,-1.437530518E0,9.466217041E0,1.856475830E0
5.729517180E-1,-1.454299927E0,9.391998291E0,1.846893311E0
5.754541590E-1,-1.526123047E0,9.356079102E0,1.889999390E0
5.779566010E-1,-1.540481567E0,9.301025391E0,1.870834351E0
5.804590420E-1,-1.550064087E0,9.260314941E0,1.858871460E0
5.829614840E-1,-1.456680298E0,9.224411011E0,1.913940430E0
5.854639250E-1,-1.471054077E0,9.186096191E0,1.971389771E0
5.879663660E-1,-1.494995117E0,9.226806641E0,1.870834351E0
5.904688080E-1,-1.528518677E0,9.281860352E0,1.763107300E0
5.929712490E-1,-1.509353638E0,9.296234131E0,1.746337891E0
5.954736910E-1,-1.483016968E0,9.341720581E0,1.727188110E0
5.979761320E-1,-1.439926147E0,9.425521851E0,1.724792480E0
6.004785740E-1,-1.382461548E0,9.504531860E0,1.722396851E0
6.029810150E-1,-1.303451538E0,9.585922241E0,1.777465820E0
6.054834560E-1,-1.231628418E0,9.667327881E0,1.791824341E0
6.079858980E-1,-1.178955078E0,9.767883301E0,1.784652710E0
6.104883390E-1,-1.111923218E0,9.770278931E0,1.782257080E0
6.129907810E-1,-1.104736328E0,9.767883301E0,1.791824341E0
6.154932220E-1,-1.056854248E0,9.755920410E0,1.705642700E0
6.179956630E-1,-1.028121948E0,9.751129150E0,1.593109131E0
6.204981050E-1,-9.826354980E-1,9.758316040E0,1.526077271E0
6.230005460E-1,-9.730529785E-1,9.815765381E0,1.399185181E0
6.255029880E-1,-9.586944580E-1,9.889999390E0,1.265106201E0
6.280054290E-1,-1.001785278E0,9.913940430E0,1.200469971E0
6.305078700E-1,-1.037704468E0,9.980972290E0,1.121459961E0
6.330103120E-1,-1.016159058E0,1.005998230E1,1.083145142E0
6.355127530E-1,-1.013763428E0,1.011984253E1,1.114273071E0
6.380151950E-1,-9.730529785E-1,1.009828186E1,1.114273071E0
6.405176360E-1,-1.006576538E0,1.010786438E1,1.181304932E0
6.430200770E-1,-9.850311279E-1,1.010786438E1,1.169342041E0
6.455225190E-1,-9.730529785E-1,1.016293335E1,1.162155151E0
6.480249600E-1,-9.395446777E-1,1.010067749E1,1.188491821E0
6.505274020E-1,-9.227752686E-1,1.007434082E1,1.181304932E0
6.530298430E-1,-9.227752686E-1,1.006237793E1,1.162155151E0
6.555322840E-1,-8.892669678E-1,1.001689148E1,1.171737671E0
6.580347260E-1,-8.796844482E-1,9.945053101E0,1.233978271E0
6.605371670E-1,-8.964385986E-1,9.889999390E0,1.277084351E0
6.630396090E-1,-8.844757080E-1,9.827743530E0,1.327362061E0
6.655420500E-1,-8.389892578E-1,9.782257080E0,1.245956421E0
6.680444910E-1,-8.222198486E-1,9.705642700E0,1.087936401E0
6.705469330E-1,-7.719421387E-1,9.633819580E0,1.008926392E0
6.730493740E-1,-8.006744385E-1,9.578750610E0,1.001739502E0
6.755518160E-1,-7.910919189E-1,9.585922241E0,1.023284912E0
6.780542570E-1,-7.216644287E-1,9.516494751E0,1.013717651E0
6.805566990E-1,-6.641998291E-1,9.456649780E0,1.008926392E0
6.830591400E-1,-6.139221191E-1,9.444671631E0,1.085540771E0
6.855615810E-1,-5.109710693E-1,9.396789551E0,1.018508911E0
6.880640230E-1,-4.223937988E-1,9.423126221E0,8.700561523E-1
6.905664640E-1,-4.176025391E-1,9.447067261E0,6.928863525E-1
6.930689060E-1,-4.367523193E-1,9.506927490E0,6.593780518E-1
6.955713470E-1,-4.223937988E-1,9.629028320E0,6.043090820E-1
6.980737880E-1,-4.463348389E-1,9.772674561E0,5.803680420E-1
7.005762300E-1,-4.822540283E-1,9.894775391E0,5.348815918E-1
7.030786710E-1,-5.325317383E-1,1.005998230E1,5.013580322E-1
7.055811130E-1,-6.235046387E-1,1.021560669E1,4.989624023E-1
7.080835540E-1,-5.828094482E-1,1.028742981E1,4.846038818E-1
7.105859950E-1,-5.540771484E-1,1.034249878E1,5.779724121E-1
7.130884370E-1,-5.540771484E-1,1.037362671E1,5.564270020E-1
7.155603610E-1,-5.037994385E-1,1.030657959E1,6.713409424E-1
7.180628020E-1,-4.535217285E-1,1.024673462E1,7.623291016E-1
7.205652430E-1,-4.630889893E-1,1.017729187E1,7.623291016E-1
7.230676850E-1,-4.463348389E-1,1.006716919E1,6.976776123E-1
7.255701260E-1,-4.726715088E-1,9.995330811E0,7.120513916E-1
7.280725680E-1,-5.277404785E-1,9.899566650E0,6.497955322E-1
7.305750090E-1,-5.899810791E-1,9.880416870E0,7.096557617E-1
7.330774500E-1,-6.330871582E-1,9.930694580E0,7.168273926E-1
7.355798920E-1,-6.115264893E-1,9.873229980E0,7.862701416E-1
7.380823330E-1,-6.354827881E-1,9.909149170E0,9.035797119E-1
7.405847750E-1,-6.306915283E-1,9.892379761E0,1.023284912E0
7.430872160E-1,-5.875854492E-1,9.947448730E0,1.078353882E0
7.455896570E-1,-6.091461182E-1,9.959426880E0,1.080749512E0
7.480920990E-1,-5.828094482E-1,9.976181030E0,1.104690552E0
7.505945400E-1,-4.630889893E-1,1.001210022E1,1.164550781E0
7.530969820E-1,-4.822540283E-1,1.006716919E1,1.131027222E0
7.555994230E-1,-6.354827881E-1,1.014855957E1,1.066390991E0
7.581018650E-1,-6.306915283E-1,1.011265564E1,1.073577881E0
7.606043060E-1,-5.229492188E-1,1.008631897E1,1.207641602E0
7.631067470E-1,-4.032440186E-1,1.015814209E1,1.272293091E0
7.656091890E-1,-4.104156494E-1,1.019166565E1,1.147796631E0
7.681116300E-1,-3.769073486E-1,1.025390625E1,1.138214111E0
7.706140720E-1,-5.636444092E-1,1.041432190E1,9.801940918E-1
7.731165130E-1,-6.546325684E-1,1.045024109E1,9.849853516E-1
7.756189540E-1,-6.450500488E-1,1.052445984E1,1.080749512E0
7.781213960E-1,-7.049102783E-1,1.060107422E1,1.126235962E0
7.806238370E-1,-6.857604980E-1,1.051727295E1,1.150192261E0
7.831262790E-1,-7.719421387E-1,1.049333191E1,1.152572632E0
7.856287200E-1,-8.365936279E-1,1.048614502E1,1.018508911E0
7.881006440E-1,-8.988342285E-1,1.048614502E1,8.150024414E-1
7.906030850E-1,-9.299621582E-1,1.043826294E1,7.862701416E-1
7.931055270E-1,-7.982788086E-1,1.042390442E1,8.197784424E-1
7.956079680E-1,-7.910919189E-1,1.038079834E1,8.916168213E-1
7.981104090E-1,-7.863159180E-1,1.038319397E1,1.054412842E0
8.006128510E-1,-8.365936279E-1,1.035208130E1,1.135818481E0
8.031152920E-1,-8.677062988E-1,1.025151062E1,1.248352051E0
8.056177340E-1,-7.839202881E-1,1.013659668E1,1.312988281E0
8.081201750E-1,-7.288513184E-1,1.004322815E1,1.301025391E0
8.106226160E-1,-7.575836182E-1,9.949844360E0,1.255523682E0
8.131250580E-1,-7.551879883E-1,9.892379761E0,1.183700562E0
8.156274990E-1,-7.887115479E-1,9.832534790E0,1.157363892E0
8.181299410E-1,-8.341979980E-1,9.722396851E0,1.095123291E0
8.206323820E-1,-8.629302979E-1,9.655364990E0,1.047241211E0
8.231348240E-1,-8.198242188E-1,9.588317871E0,1.150192261E0
8.256372650E-1,-7.910919189E-1,9.593109131E0,1.078353882E0
8.281397060E-1,-8.294067383E-1,9.547622681E0,1.092727661E0
8.306421480E-1,-7.551879883E-1,9.492553711E0,1.181304932E0
8.331445890E-1,-7.910919189E-1,9.514099121E0,1.107086182E0
8.356470310E-1,-7.958831787E-1,9.528472900E0,1.135818481E0
8.381494720E-1,-7.049102783E-1,9.485366821E0,1.183700562E0
8.406519130E-1,-6.235046387E-1,9.514099121E0,1.044845581E0
8.431543550E-1,-6.522369385E-1,9.595504761E0,9.777984619E-1
8.456567960E-1,-7.384185791E-1,9.590713501E0,9.442901611E-1
8.481592380E-1,-9.132080078E-1,9.624237061E0,9.730072021E-1
8.506616790E-1,-9.826354980E-1,9.612258911E0,1.068786621E0
8.531641200E-1,-9.323577881E-1,9.514099121E0,1.166946411E0
8.556665620E-1,-8.605346680E-1,9.423126221E0,1.198074341E0
8.581384860E-1,-7.719421387E-1,9.380035400E0,1.107086182E0
8.606714450E-1,-8.365936279E-1,9.473403931E0,9.011840820E-1
8.631738860E-1,-9.730529785E-1,9.518890381E0,7.359924316E-1
8.656763270E-1,-9.730529785E-1,9.499740601E0,8.341522217E-1
8.681787690E-1,-8.653259277E-1,9.471008301E0,9.777984619E-1
8.706812100E-1,-7.288513184E-1,9.504531860E0,1.107086182E0
8.731836520E-1,-7.049102783E-1,9.583541870E0,1.114273071E0
8.756860930E-1,-8.006744385E-1,9.720001221E0,1.032867432E0
8.781580170E-1,-8.126525879E-1,9.763107300E0,1.085540771E0
8.806604580E-1,-7.743377686E-1,9.839721680E0,1.099899292E0
8.831629000E-1,-7.599792480E-1,9.899566650E0,1.107086182E0
8.856653410E-1,-6.809692383E-1,9.928298950E0,1.068786621E0
8.881677820E-1,-6.665954590E-1,9.992950439E0,1.004135132E0
8.906702240E-1,-6.067504883E-1,1.007434082E1,9.873809814E-1
8.932031830E-1,-5.468902588E-1,1.015574646E1,9.586486816E-1
8.957056240E-1,-5.037994385E-1,1.023954773E1,9.634399414E-1
8.982080660E-1,-4.822540283E-1,1.020841980E1,9.562530518E-1
9.007105070E-1,-3.816833496E-1,1.014378357E1,1.056808472E0
9.032129490E-1,-3.385925293E-1,1.013420105E1,1.042449951E0
9.057153900E-1,-3.697204590E-1,1.015335083E1,9.586486816E-1
9.082178310E-1,-3.098602295E-1,1.011026001E1,9.825897217E-1
9.107202730E-1,-2.595825195E-1,1.011505127E1,9.538574219E-1
9.132227140E-1,-2.236785889E-1,1.013420105E1,8.485107422E-1
9.157251560E-1,-1.925506592E-1,1.009590149E1,7.766876221E-1
9.182275970E-1,-1.877593994E-1,1.008152771E1,7.503509521E-1
9.207300380E-1,-2.787322998E-1,1.011744690E1,6.833190918E-1
9.232324800E-1,-2.859191895E-1,1.009590149E1,6.545867920E-1
9.257349210E-1,-3.577423096E-1,1.009111023E1,6.785278320E-1
9.282373630E-1,-4.319610596E-1,1.012940979E1,6.689453125E-1
9.307398040E-1,-4.894256592E-1,1.014855957E1,6.162719727E-1
9.332422450E-1,-4.559173584E-1,1.013899231E1,6.473999023E-1
9.357446870E-1,-5.397033691E-1,1.009350586E1,6.593780518E-1
9.382471280E-1,-5.468902588E-1,1.007673645E1,7.168273926E-1
9.407495700E-1,-6.641998291E-1,1.009111023E1,7.383880615E-1
9.432520110E-1,-6.618041992E-1,1.005039978E1,7.742919922E-1
9.457544520E-1,-6.282958984E-1,1.001928711E1,7.671051025E-1
9.482568940E-1,-5.684356689E-1,9.968994141E0,7.958374023E-1
9.507593350E-1,-4.630889893E-1,9.897171021E0,8.030242920E-1
9.532617770E-1,-4.367523193E-1,9.959426880E0,7.790832520E-1
9.557642180E-1,-5.061950684E-1,1.002166748E1,8.365478516E-1
9.582666590E-1,-5.851898193E-1,1.014138794E1,7.575378418E-1
9.607691010E-1,-6.187133789E-1,1.025630188E1,8.437194824E-1
9.632715420E-1,-5.995635986E-1,1.031616211E1,8.940124512E-1
9.657739840E-1,-6.163177490E-1,1.038798523E1,9.299163818E-1
9.682764250E-1,-6.761779785E-1,1.040953064E1,8.676757812E-1
9.707788660E-1,-6.881408691E-1,1.048135376E1,7.096557617E-1
9.732813080E-1,-7.623748779E-1,1.046220398E1,6.138763428E-1
9.757837490E-1,-8.940429688E-1,1.052206421E1,5.707855225E-1
9.782556730E-1,-9.586944580E-1,1.053642273E1,5.564270020E-1
9.807581150E-1,-9.275665283E-1,1.051248169E1,6.761322021E-1
9.832605560E-1,-8.533477783E-1,1.045980835E1,7.814788818E-1
9.857629970E-1,-8.437652588E-1,1.040713501E1,8.102111816E-1
9.882654390E-1,-8.078613281E-1,1.038798523E1,7.288055420E-1
9.907678800E-1,-7.216644287E-1,1.035446167E1,7.144470215E-1
9.932703220E-1,-6.570281982E-1,1.031376648E1,7.359924316E-1
9.957727630E-1,-6.522369385E-1,1.025630188E1,7.862701416E-1
9.982752040E-1,-6.594238281E-1,1.022756958E1,6.186676025E-1
1.000777646E0,-6.665954590E-1,1.021800232E1,6.114959717E-1
1.003280087E0,-6.833648682E-1,1.014855957E1,7.144470215E-1
1.005782529E0,-7.551879883E-1,1.012940979E1,6.186676025E-1
1.008284970E0,-7.575836182E-1,1.007194519E1,7.168273926E-1
1.010787411E0,-7.958831787E-1,9.978576660E0,7.599334717E-1
1.013289853E0,-7.599792480E-1,9.880416870E0,7.551422119E-1
1.015792294E0,-7.815246582E-1,9.858871460E0,7.599334717E-1
1.018294736E0,-8.078613281E-1,9.806198120E0,7.886657715E-1
1.020797177E0,-7.958831787E-1,9.822952271E0,6.833190918E-1
1.023299618E0,-8.150482178E-1,9.796615601E0,6.186676025E-1
1.025802060E0,-8.222198486E-1,9.772674561E0,5.995178223E-1
1.028304501E0,-7.743377686E-1,9.789443970E0,5.229034424E-1
1.030806943E0,-7.887115479E-1,9.748733521E0,5.588226318E-1
1.033309384E0,-7.958831787E-1,9.825347900E0,4.606475830E-1
1.035811825E0,-8.054656982E-1,9.880416870E0,4.702301025E-1
1.038314267E0,-7.695465088E-1,9.935485840E0,4.822082520E-1
1.040816708E0,-7.408142090E-1,9.971389771E0,5.205078125E-1
1.043319150E0,-7.097015381E-1,1.002166748E1,5.731811523E-1
1.045821591E0,-6.929321289E-1,1.007434082E1,5.899353027E-1
1.048324032E0,-7.049102783E-1,1.013659668E1,7.096557617E-1
1.050826474E0,-6.522369385E-1,1.022279358E1,7.838745117E-1
1.053328915E0,-6.259002686E-1,1.022517395E1,8.078155518E-1
1.055831357E0,-5.804138184E-1,1.021560669E1,7.671051025E-1
1.058333798E0,-6.139221191E-1,1.027784729E1,6.689453125E-1
1.060836240E0,-6.474456787E-1,1.029461670E1,6.402130127E-1
1.063338681E0,-6.426544189E-1,1.030178833E1,6.067047119E-1
1.065841122E0,-6.091461182E-1,1.030178833E1,6.569824219E-1
1.068343564E0,-5.875854492E-1,1.030178833E1,6.904907227E-1
1.070815488E0,-6.402587891E-1,1.027546692E1,6.952819824E-1
1.073317929E0,-6.187133789E-1,1.026828003E1,6.521911621E-1
1.075820370E0,-6.187133789E-1,1.025151062E1,6.282501221E-1
1.078322812E0,-5.899810791E-1,1.018208313E1,7.048645020E-1
1.080825253E0,-5.875854492E-1,1.011026001E1,7.407836914E-1
1.083327695E0,-5.875854492E-1,1.009350586E1,7.096557617E-1
1.085830136E0,-6.211090088E-1,1.008631897E1,7.144470215E-1
1.088332577E0,-5.971679688E-1,1.000730896E1,6.306457520E-1
1.090835019E0,-6.019592285E-1,1.000730896E1,5.635986328E-1
1.093337460E0,-6.306915283E-1,9.995330811E0,6.426086426E-1
1.095839902E0,-6.594238281E-1,9.952239990E0,7.192230225E-1
1.098342343E0,-7.001190186E-1,9.937881470E0,6.162719727E-1
1.100844784E0,-7.192687988E-1,9.940277100E0,5.588226318E-1
1.103347226E0,-7.527923584E-1,9.971389771E0,5.540313721E-1
1.105849667E0,-7.264556885E-1,9.913940430E0,5.731811523E-1
1.108352109E0,-7.503967285E-1,9.904357910E0,6.043090820E-1
1.110854550E0,-7.695465088E-1,9.875625610E0,6.186676025E-1
1.113356991E0,-7.982788086E-1,9.906753540E0,5.779724121E-1
1.115859433E0,-8.270111084E-1,9.909149170E0,4.917755127E-1
1.118361874E0,-7.934875488E-1,9.892379761E0,4.008026123E-1
1.120864316E0,-7.623748779E-1,9.894775391E0,4.055938721E-1
1.123366757E0,-7.288513184E-1,9.834930420E0,4.414978027E-1
1.125869199E0,-7.120971680E-1,9.787048340E0,4.486846924E-1
1.128371640E0,-7.216644287E-1,9.813385010E0,4.510803223E-1
1.130874081E0,-7.623748779E-1,9.844497681E0,4.989624023E-1
1.133376523E0,-7.815246582E-1,9.925903320E0,5.109405518E-1
1.135878964E0,-7.910919189E-1,9.995330811E0,4.893798828E-1
1.138381406E0,-8.294067383E-1,1.008152771E1,4.941711426E-1
1.140883847E0,-8.318023682E-1,1.012461853E1,4.558715820E-1
1.143386288E0,-8.150482178E-1,1.019406128E1,4.750213623E-1
1.145888730E0,-8.461608887E-1,1.023236084E1,5.516357422E-1
1.148360654E0,-8.724975586E-1,1.023715210E1,5.468444824E-1
1.150863095E0,-8.820800781E-1,1.026828003E1,5.995178223E-1
1.153365536E0,-9.060211182E-1,1.023954773E1,5.779724121E-1
1.155867978E0,-8.629302979E-1,1.018208313E1,7.072601318E-1
1.158370419E0,-9.203796387E-1,1.025630188E1,9.179534912E-1
1.160872861E0,-8.677062988E-1,1.022517395E1,1.037658691E0
1.163375302E0,-8.222198486E-1,1.017489624E1,9.897766113E-1
1.165877743E0,-8.533477783E-1,1.021560669E1,8.293609619E-1
1.168380185E0,-9.251708984E-1,1.028742981E1,6.761322021E-1
1.170882626E0,-9.060211182E-1,1.025151062E1,4.343261719E-1
1.173385068E0,-8.677062988E-1,1.018208313E1,2.787017822E-1
1.175887509E0,-8.748931885E-1,1.015095520E1,2.379913330E-1
1.178420468E0,-8.916625977E-1,1.013420105E1,3.170013428E-1
1.180922909E0,-8.533477783E-1,1.009111023E1,4.606475830E-1
1.183425351E0,-8.078613281E-1,1.003364563E1,5.612182617E-1
1.185927792E0,-7.480010986E-1,9.995330811E0,6.258544922E-1
1.188430234E0,-7.216644287E-1,9.973785400E0,6.162719727E-1
1.190932675E0,-6.833648682E-1,9.928298950E0,5.731811523E-1
1.193435116E0,-7.575836182E-1,9.940277100E0,6.450042725E-1
1.195937558E0,-7.312469482E-1,9.935485840E0,7.695007324E-1
1.198439999E0,-6.953277588E-1,9.892379761E0,8.844299316E-1
1.200942441E0,-6.713867188E-1,9.882812500E0,9.586486816E-1
1.203444882E0,-7.527923584E-1,9.873229980E0,8.461151123E-1
1.205947324E0,-7.767333984E-1,9.906753540E0,7.359924316E-1
1.208449765E0,-8.389892578E-1,9.947448730E0,6.737365723E-1
1.210952206E0,-8.102569580E-1,9.933090210E0,5.779724121E-1
1.213454648E0,-8.126525879E-1,9.949844360E0,4.151611328E-1
1.215957089E0,-8.102569580E-1,9.949844360E0,2.787017822E-1
1.218459531E0,-8.198242188E-1,1.002645874E1,2.787017822E-1
1.220961972E0,-8.078613281E-1,1.004083252E1,3.792572021E-1
1.223464413E0,-7.551879883E-1,1.008152771E1,4.295349121E-1
1.225966855E0,-6.618041992E-1,1.014378357E1,4.846038818E-1
1.228469296E0,-6.235046387E-1,1.012940979E1,5.635986328E-1
1.230971738E0,-5.923767090E-1,1.009828186E1,6.234588623E-1
1.233474179E0,-5.397033691E-1,1.011984253E1,7.024688721E-1
1.235976620E0,-5.349121094E-1,1.013899231E1,5.707855225E-1
1.238479062E0,-5.875854492E-1,1.012222290E1,3.816528320E-1
1.240981503E0,-6.259002686E-1,1.016053772E1,2.763061523E-1
1.243483945E0,-7.144775391E-1,1.011505127E1,2.834777832E-1
1.245986386E0,-7.240600586E-1,1.015095520E1,4.103698730E-1
1.248488827E0,-7.097015381E-1,1.016293335E1,3.912200928E-1
1.250991269E0,-7.503967285E-1,1.011505127E1,4.247436523E-1
1.253493710E0,-8.006744385E-1,1.013659668E1,4.702301025E-1
1.255996152E0,-8.341979980E-1,1.011744690E1,5.659942627E-1
1.258498593E0,-7.982788086E-1,1.008392334E1,4.654388428E-1
1.261001034E0,-7.910919189E-1,1.009350586E1,4.414978027E-1
1.263503476E0,-7.839202881E-1,1.003843689E1,4.295349121E-1
1.266005917E0,-7.240600586E-1,1.003843689E1,5.612182617E-1
1.268508359E0,-6.570281982E-1,1.004322815E1,7.000732422E-1
1.270980282E0,-6.665954590E-1,1.002645874E1,7.024688721E-1
1.273482724E0,-6.713867188E-1,1.000251770E1,5.229034424E-1
1.275985165E0,-6.737823486E-1,9.930694580E0,4.343261719E-1
1.278487607E0,-6.857604980E-1,9.971389771E0,3.481292725E-1
1.280990048E0,-6.857604980E-1,9.966613770E0,3.026428223E-1
1.283492490E0,-7.073059082E-1,9.937881470E0,2.332000732E-1
1.285994931E0,-7.647552490E-1,9.954635620E0,2.020874023E-1
1.288497372E0,-7.767333984E-1,9.966613770E0,1.925048828E-1
1.290999814E0,-7.958831787E-1,9.942672729E0,2.547607422E-1
1.293502255E0,-7.551879883E-1,9.961822510E0,4.319305420E-1
1.296004697E0,-7.575836182E-1,9.952239990E0,5.109405518E-1
1.298507138E0,-7.647552490E-1,9.901962280E0,5.324859619E-1
1.301009579E0,-7.671508789E-1,9.957031250E0,5.205078125E-1
1.303512021E0,-7.934875488E-1,1.000491333E1,4.630432129E-1
1.306014462E0,-7.910919189E-1,9.923507690E0,3.840332031E-1
1.308516904E0,-7.647552490E-1,9.957031250E0,3.170013428E-1
1.311019345E0,-7.958831787E-1,9.990554810E0,3.936157227E-1
1.313521786E0,-8.246154785E-1,1.005758667E1,4.462890625E-1
1.316024228E0,-8.198242188E-1,1.006477356E1,4.343261719E-1
1.318526669E0,-8.533477783E-1,1.010546875E1,4.079895020E-1
1.321029111E0,-9.036254883E-1,1.005998230E1,3.816528320E-1
1.323501034E0,-9.874267578E-1,1.004083252E1,4.462890625E-1
1.326003476E0,-9.682769775E-1,1.001689148E1,4.271392822E-1
1.328505917E0,-9.778442383E-1,9.954635620E0,4.486846924E-1
1.331008359E0,-9.491119385E-1,9.909149170E0,5.037536621E-1
1.333510800E0,-9.467163086E-1,9.866058350E0,5.013580322E-1
1.336013241E0,-9.371490479E-1,9.842102051E0,4.151611328E-1
1.338515683E0,-8.988342285E-1,9.854080200E0,3.098144531E-1
1.341018124E0,-8.796844482E-1,9.839721680E0,1.541900635E-1
1.343520566E0,-8.940429688E-1,9.837326050E0,6.321716309E-2
1.346023007E0,-8.772888184E-1,9.885208130E0,7.040405273E-2
1.348525449E0,-8.437652588E-1,9.899566650E0,1.230773926E-1
1.351027890E0,-8.365936279E-1,9.870834351E0,2.643280029E-1
1.353530331E0,-8.198242188E-1,9.911544800E0,3.433380127E-1
1.356032773E0,-7.887115479E-1,9.947448730E0,4.271392822E-1
1.358535214E0,-7.934875488E-1,9.942672729E0,4.654388428E-1
1.361037656E0,-8.006744385E-1,9.997726440E0,4.726257324E-1
1.363540097E0,-7.599792480E-1,1.000251770E1,4.175567627E-1
1.366042538E0,-7.432098389E-1,1.000251770E1,4.055938721E-1
1.368544980E0,-7.982788086E-1,1.003364563E1,3.002471924E-1
1.371047421E0,-7.408142090E-1,1.005758667E1,2.739105225E-1
1.373549863E0,-7.312469482E-1,1.012222290E1,3.146057129E-1
1.376052304E0,-7.480010986E-1,1.016053772E1,3.505249023E-1
1.378554745E0,-7.432098389E-1,1.024194336E1,3.193969727E-1
1.381057187E0,-7.743377686E-1,1.024433899E1,3.529205322E-1
1.383559628E0,-7.360382080E-1,1.024913025E1,3.457336426E-1
1.386062070E0,-7.192687988E-1,1.027546692E1,3.241882324E-1
1.388564511E0,-7.312469482E-1,1.026828003E1,3.744659424E-1
1.391066952E0,-7.456054688E-1,1.023236084E1,3.912200928E-1
1.393569394E0,-7.503967285E-1,1.022279358E1,3.840332031E-1
1.396071835E0,-7.456054688E-1,1.020123291E1,3.912200928E-1
1.398574277E0,-7.049102783E-1,1.016772461E1,4.103698730E-1
1.401076718E0,-6.833648682E-1,1.013180542E1,3.481292725E-1
1.403579159E0,-6.809692383E-1,1.012701416E1,3.792572021E-1
1.406081601E0,-6.187133789E-1,1.009350586E1,3.864288330E-1
1.408584042E0,-5.995635986E-1,1.006237793E1,3.984069824E-1
1.411086484E0,-6.043548584E-1,1.006716919E1,4.103698730E-1
1.413588925E0,-6.665954590E-1,1.002645874E1,4.223480225E-1
1.416091366E0,-6.833648682E-1,1.001210022E1,3.792572021E-1
1.418593808E0,-7.049102783E-1,1.001928711E1,3.696746826E-1
1.421096249E0,-7.527923584E-1,1.000491333E1,4.319305420E-1
1.423598691E0,-7.671508789E-1,9.995330811E0,5.157165527E-1
1.426101132E0,-7.456054688E-1,9.925903320E0,6.114959717E-1
1.428603574E0,-7.001190186E-1,9.870834351E0,7.216186523E-1
1.431075497E0,-7.719421387E-1,9.839721680E0,6.569824219E-1
1.433577939E0,-8.246154785E-1,9.837326050E0,6.282501221E-1
1.436080380E0,-8.533477783E-1,9.801406860E0,5.923309326E-1
1.438582822E0,-8.844757080E-1,9.834930420E0,6.258544922E-1
1.441085263E0,-8.581390381E-1,9.784652710E0,5.755767822E-1
1.443587704E0,-8.437652588E-1,9.782257080E0,4.271392822E-1
1.446090146E0,-8.413696289E-1,9.753524780E0,3.122100830E-1
1.448592587E0,-8.270111084E-1,9.755920410E0,3.074188232E-1
1.451095029E0,-8.413696289E-1,9.803802490E0,3.936157227E-1
1.453597470E0,-8.557434082E-1,9.842102051E0,3.864288330E-1
1.456099911E0,-8.772888184E-1,9.856475830E0,3.313751221E-1
1.458602353E0,-8.198242188E-1,9.878021240E0,2.332000732E-1
1.461104794E0,-7.839202881E-1,9.899566650E0,1.709594727E-1
1.463637753E0,-7.863159180E-1,9.916336060E0,2.188415527E-1
1.466140195E0,-8.389892578E-1,9.933090210E0,2.523651123E-1
1.468642636E0,-8.198242188E-1,9.901962280E0,2.739105225E-1
1.471145077E0,-7.887115479E-1,9.921112061E0,3.529205322E-1
1.473647519E0,-7.480010986E-1,9.923507690E0,3.576965332E-1
1.476149960E0,-7.192687988E-1,9.933090210E0,3.768615723E-1
1.478652402E0,-7.408142090E-1,9.976181030E0,3.960113525E-1
1.481154843E0,-7.767333984E-1,9.940277100E0,3.624877930E-1
1.483657284E0,-7.934875488E-1,9.949844360E0,3.648834229E-1
1.486159726E0,-7.503967285E-1,9.966613770E0,3.409423828E-1
1.488662167E0,-7.456054688E-1,9.930694580E0,2.715148926E-1
1.491164609E0,-7.934875488E-1,9.909149170E0,2.188415527E-1
1.493667050E0,-7.958831787E-1,9.921112061E0,2.427825928E-1
1.496169491E0,-7.503967285E-1,9.921112061E0,2.308044434E-1
1.498671933E0,-7.647552490E-1,9.964218140E0,2.571411133E-1
1.501174374E0,-7.671508789E-1,9.997726440E0,3.122100830E-1
1.503676816E0,-7.240600586E-1,9.983367920E0,3.744659424E-1
1.506179257E0,-7.049102783E-1,1.001928711E1,4.055938721E-1
1.508681699E0,-7.192687988E-1,9.997726440E0,4.295349121E-1
1.511184140E0,-6.977233887E-1,1.002166748E1,4.462890625E-1
1.513686581E0,-6.977233887E-1,9.995330811E0,4.103698730E-1
1.516189023E0,-6.905364990E-1,9.980972290E0,3.888244629E-1
1.518691464E0,-6.929321289E-1,9.971389771E0,3.960113525E-1
1.521193906E0,-6.833648682E-1,9.973785400E0,4.391021729E-1
1.523665829E0,-6.953277588E-1,9.913940430E0,3.816528320E-1
1.526168271E0,-6.953277588E-1,9.921112061E0,3.960113525E-1
1.528670712E0,-7.144775391E-1,9.930694580E0,3.505249023E-1
1.531173154E0,-7.216644287E-1,9.947448730E0,3.026428223E-1
1.533675595E0,-6.737823486E-1,9.992950439E0,2.619323730E-1
1.536178036E0,-6.641998291E-1,1.008631897E1,2.092590332E-1
1.538680478E0,-6.163177490E-1,1.007194519E1,1.901092529E-1
1.541182919E0,-5.133666992E-1,1.008152771E1,1.494140625E-1
1.543685361E0,-4.798583984E-1,1.009590149E1,2.068634033E-1
1.546187802E0,-4.702758789E-1,1.004800415E1,3.146057129E-1
1.548690243E0,-4.176025391E-1,9.990554810E0,3.936157227E-1
1.551192685E0,-4.104156494E-1,9.906753540E0,4.343261719E-1
1.553695126E0,-4.702758789E-1,9.892379761E0,4.558715820E-1
1.556197568E0,-5.397033691E-1,9.880416870E0,3.002471924E-1
1.558700009E0,-5.564727783E-1,9.856475830E0,2.188415527E-1
1.561202450E0,-6.235046387E-1,9.830139160E0,1.949005127E-1
1.563704892E0,-6.522369385E-1,9.839721680E0,1.398315430E-1
1.566207333E0,-6.785736084E-1,9.803802490E0,1.565856934E-1
1.568709775E0,-6.761779785E-1,9.830139160E0,2.068634033E-1
1.571212216E0,-6.354827881E-1,9.873229980E0,2.475738525E-1
1.573714657E0,-6.282958984E-1,9.856475830E0,2.044677734E-1
1.576217099E0,-5.971679688E-1,9.861267090E0,1.541900635E-1
1.578719540E0,-5.444946289E-1,9.913940430E0,1.422271729E-1
1.581221982E0,-5.636444092E-1,9.889999390E0,1.398315430E-1
1.583724423E0,-6.067504883E-1,9.942672729E0,1.374359131E-1
1.586226865E0,-6.474456787E-1,1.000730896E1,1.565856934E-1
1.588729306E0,-6.929321289E-1,1.005758667E1,2.020874023E-1
1.591231747E0,-7.049102783E-1,1.003843689E1,2.810821533E-1
1.593734189E0,-6.953277588E-1,9.964218140E0,2.954559326E-1
1.596236630E0,-6.881408691E-1,9.988159180E0,2.523651123E-1
1.598739072E0,-6.809692383E-1,1.005998230E1,2.810821533E-1
1.601241513E0,-7.144775391E-1,1.003843689E1,3.409423828E-1
1.603743954E0,-6.881408691E-1,1.007434082E1,2.906646729E-1
1.606246396E0,-6.953277588E-1,1.011744690E1,1.254730225E-1
1.608748837E0,-6.833648682E-1,1.012222290E1,9.674072266E-2
1.611251279E0,-6.953277588E-1,1.011505127E1,1.063079834E-1
1.613753720E0,-6.235046387E-1,1.009828186E1,9.913635254E-2
1.616225644E0,-6.426544189E-1,1.005279541E1,1.039123535E-1
1.618728085E0,-6.594238281E-1,9.997726440E0,7.997131348E-2
1.621230527E0,-6.474456787E-1,1.000251770E1,8.955383301E-2
1.623732968E0,-5.899810791E-1,1.001689148E1,1.781463623E-1
1.626235409E0,-5.636444092E-1,9.995330811E0,1.757507324E-1
1.628737851E0,-5.253448486E-1,9.959426880E0,1.158905029E-1
1.631240292E0,-5.780181885E-1,9.928298950E0,8.476257324E-2
1.633742734E0,-5.708312988E-1,9.976181030E0,7.997131348E-2
1.636245175E0,-6.115264893E-1,1.000012207E1,7.757568359E-2
1.638747616E0,-6.235046387E-1,1.000491333E1,1.518096924E-1
1.641250058E0,-6.546325684E-1,1.008152771E1,1.637725830E-1
1.643752499E0,-6.833648682E-1,1.010546875E1,1.949005127E-1
1.646224423E0,-6.594238281E-1,1.010067749E1,2.140502930E-1
1.648726865E0,-7.073059082E-1,1.019885254E1,1.781463623E-1
1.651259824E0,-7.025146484E-1,1.019645691E1,2.116546631E-1
1.653762265E0,-6.785736084E-1,1.028503418E1,1.398315430E-1
1.656264706E0,-6.881408691E-1,1.033291626E1,5.123901367E-2
1.658767148E0,-6.378631592E-1,1.030657959E1,-3.973388672E-2
1.661269589E0,-6.139221191E-1,1.031137085E1,-1.187438965E-1
1.663772031E0,-5.660400391E-1,1.033770752E1,-6.846618652E-2
1.666274472E0,-5.468902588E-1,1.029461670E1,-3.494262695E-2
1.668776913E0,-5.157623291E-1,1.030418396E1,-3.973388672E-2
1.671279355E0,-4.606933594E-1,1.028742981E1,-8.605957031E-3
1.673781796E0,-4.870300293E-1,1.029222107E1,4.885864258E-2
1.676284238E0,-5.205535889E-1,1.027784729E1,6.321716309E-2
1.678786679E0,-4.678802490E-1,1.024913025E1,8.236694336E-2
1.681289120E0,-4.654846191E-1,1.027307129E1,1.063079834E-1
1.683791562E0,-4.750671387E-1,1.015095520E1,3.050384521E-1
1.686263486E0,-5.397033691E-1,1.007673645E1,5.252990723E-1
1.688765927E0,-5.109710693E-1,1.002885437E1,6.354370117E-1
1.691268368E0,-5.468902588E-1,9.918716431E0,7.599334717E-1
1.693770810E0,-6.019592285E-1,9.799011230E0,8.772430420E-1
1.696273251E0,-5.875854492E-1,9.758316040E0,9.562530518E-1
1.698775693E0,-6.306915283E-1,9.688873291E0,9.969635010E-1
1.701278134E0,-6.833648682E-1,9.652969360E0,1.001739502E0
1.703780575E0,-6.689910889E-1,9.607482910E0,8.820343018E-1
1.706283017E0,-6.905364990E-1,9.573959351E0,8.126068115E-1
1.708785458E0,-7.264556885E-1,9.576354980E0,9.035797119E-1
1.711287900E0,-7.073059082E-1,9.629028320E0,8.461151123E-1
1.713790341E0,-6.306915283E-1,9.820556641E0,8.556976318E-1
1.716292782E0,-6.235046387E-1,9.978576660E0,7.671051025E-1
1.718795224E0,-6.833648682E-1,1.006237793E1,6.569824219E-1
1.721297665E0,-7.480010986E-1,1.008871460E1,6.952819824E-1
1.723800107E0,-7.695465088E-1,1.008871460E1,4.965667725E-1
1.726302548E0,-8.126525879E-1,1.009590149E1,4.774169922E-1
1.728804990E0,-8.270111084E-1,1.006237793E1,3.720703125E-1
1.731307431E0,-8.054656982E-1,1.002645874E1,3.098144531E-1
1.733809872E0,-8.006744385E-1,1.002166748E1,3.361511230E-1
1.736312314E0,-7.503967285E-1,1.005279541E1,3.313751221E-1
1.738814755E0,-6.833648682E-1,1.003125000E1,3.505249023E-1
1.741317197E0,-6.091461182E-1,1.003125000E1,4.319305420E-1
1.743819638E0,-6.019592285E-1,1.000970459E1,4.558715820E-1
1.746291562E0,-6.019592285E-1,9.992950439E0,4.391021729E-1
1.748824521E0,-5.397033691E-1,9.990554810E0,4.008026123E-1
1.751326962E0,-4.894256592E-1,1.005519104E1,4.031982422E-1
1.753859921E0,-4.343566895E-1,1.012222290E1,4.151611328E-1
1.756362363E0,-4.678802490E-1,1.014855957E1,3.720703125E-1
1.758864804E0,-4.846343994E-1,1.019885254E1,3.816528320E-1
1.761367245E0,-4.726715088E-1,1.025869751E1,4.367065430E-1
1.763869687E0,-3.984527588E-1,1.025869751E1,3.600921631E-1
1.766372128E0,-3.481750488E-1,1.022517395E1,3.074188232E-1
1.768874570E0,-3.122558594E-1,1.023954773E1,3.409423828E-1
1.771377011E0,-2.978973389E-1,1.022279358E1,2.284240723E-1
1.773879452E0,-3.218383789E-1,1.014378357E1,1.853179932E-1
1.776351376E0,-3.409881592E-1,1.012940979E1,1.709594727E-1
1.778853818E0,-3.074645996E-1,1.011744690E1,1.637725830E-1
1.781356259E0,-2.978973389E-1,1.006237793E1,1.302490234E-1
1.783858700E0,-2.093048096E-1,1.000012207E1,9.194946289E-2
1.786361142E0,-2.236785889E-1,9.885208130E0,1.709594727E-1
1.788863583E0,-2.380371094E-1,9.803802490E0,1.829223633E-1
1.791366025E0,-2.164916992E-1,9.767883301E0,1.278533936E-1
1.793868466E0,-2.093048096E-1,9.727188110E0,1.901092529E-1
1.796370907E0,-2.164916992E-1,9.669723511E0,1.685638428E-1
1.798873349E0,-1.805725098E-1,9.643386841E0,9.434509277E-2
1.801375790E0,-8.241271973E-2,9.676910400E0,5.363464355E-2
1.803878232E0,-4.171752930E-2,9.650573730E0,1.015319824E-1
1.806380673E0,-1.159362793E-1,9.612258911E0,8.236694336E-2
1.808883115E0,-8.720397949E-2,9.614654541E0,3.688049316E-2
1.811385556E0,-7.044982910E-2,9.645782471E0,-3.494262695E-2
1.813887997E0,-6.326293945E-2,9.688873291E0,-1.953582764E-1
1.816390439E0,-2.973937988E-2,9.720001221E0,-2.121124268E-1
1.818892880E0,-1.298522949E-2,9.806198120E0,-2.312622070E-1
1.821395322E0,1.335144043E-2,9.815765381E0,-1.881713867E-1
1.823897763E0,-2.494812012E-2,9.818161011E0,-1.833801270E-1
1.826400204E0,1.388549805E-3,9.834930420E0,-1.618347168E-1
1.828902646E0,1.450347900E-1,9.770278931E0,-1.666259766E-1
1.831405087E0,2.791137695E-1,9.729583740E0,-2.911224365E-1
1.833907529E0,3.628997803E-1,9.705642700E0,-4.156188965E-1
1.836409970E0,3.413543701E-1,9.777465820E0,-4.850616455E-1
1.838912411E0,3.461456299E-1,9.827743530E0,-4.706878662E-1
1.841414853E0,2.886810303E-1,9.875625610E0,-4.180145264E-1
1.843917294E0,2.671356201E-1,9.947448730E0,-3.414001465E-1
1.846419736E0,2.839050293E-1,1.005039978E1,-2.743682861E-1
1.848922177E0,2.839050293E-1,1.009350586E1,-2.767639160E-1
1.851424618E0,2.192535400E-1,1.017489624E1,-2.623901367E-1
1.853927060E0,1.761627197E-1,1.025151062E1,-2.384490967E-1
1.856429501E0,1.186981201E-1,1.025390625E1,-2.504272461E-1
1.858931943E0,7.560729980E-2,1.030418396E1,-2.384490967E-1
1.861434384E0,3.729248047E-2,1.031376648E1,-1.809844971E-1
1.863936825E0,1.095581055E-2,1.031137085E1,-1.187438965E-1
1.866408749E0,-1.538085938E-2,1.031376648E1,-1.809844971E-1
1.868941708E0,8.560180664E-3,1.026348877E1,-1.570434570E-1
1.871444150E0,4.447937012E-2,1.022756958E1,-8.282470703E-2
1.873946591E0,7.081604004E-2,1.021081543E1,1.293945312E-2
1.876418515E0,4.447937012E-2,1.026828003E1,3.448486328E-2
1.878920956E0,3.489685059E-2,1.017968750E1,1.293945312E-2
1.881423398E0,8.560180664E-3,1.019645691E1,-4.931640625E-2
1.883925839E0,-8.001708984E-2,1.017489624E1,9.613037109E-4
1.886428281E0,-1.518402100E-1,1.016772461E1,8.476257324E-2
1.888930722E0,-1.925506592E-1,1.011265564E1,9.913635254E-2
1.891433163E0,-2.571868896E-1,1.011265564E1,1.661682129E-1
1.893935605E0,-2.595825195E-1,1.007434082E1,1.757507324E-1
1.896438046E0,-1.949462891E-1,1.005519104E1,1.757507324E-1
1.898940488E0,-1.829681396E-1,1.002166748E1,1.326446533E-1
1.901442929E0,-1.829681396E-1,1.010067749E1,1.302490234E-1
1.903945370E0,-9.199523926E-2,1.006956482E1,-3.814697266E-3
1.906447812E0,-7.044982910E-2,1.010786438E1,-4.931640625E-2
1.908950253E0,-3.453063965E-2,1.018927002E1,2.969360352E-2
1.911452695E0,7.081604004E-2,1.022517395E1,7.040405273E-2
1.913955136E0,1.139068604E-1,1.032574463E1,1.087036133E-1
1.916457577E0,1.091156006E-1,1.036643982E1,1.565856934E-1
1.918960019E0,1.019439697E-1,1.039996338E1,1.996917725E-1
1.921462460E0,1.115112305E-1,1.040235901E1,2.188415527E-1
1.923964902E0,1.115112305E-1,1.043107605E1,2.092590332E-1
1.926467343E0,5.883789062E-2,1.052685547E1,1.565856934E-1
1.928969784E0,6.164550781E-3,1.048374939E1,5.363464355E-2
1.931472226E0,-4.411315918E-2,1.048374939E1,-6.846618652E-2
1.933974667E0,-7.044982910E-2,1.053402710E1,-1.307067871E-1
1.936477109E0,-3.932189941E-2,1.050291443E1,-1.570434570E-1
1.938979550E0,-2.255249023E-2,1.048614502E1,-1.762084961E-1
1.941481991E0,-3.402709961E-3,1.043107605E1,-1.953582764E-1
1.943984433E0,4.927062988E-2,1.036164856E1,-2.240905762E-1
1.946486874E0,1.163024902E-1,1.025151062E1,-2.384490967E-1
1.948989316E0,1.498260498E-1,1.018447876E1,-2.240905762E-1
1.951491757E0,2.096710205E-1,1.014855957E1,-2.671813965E-1
1.953994199E0,2.264404297E-1,1.006956482E1,-3.509826660E-1
1.956496640E0,2.791137695E-1,1.003125000E1,-3.868865967E-1
1.958999081E0,3.269958496E-1,1.004560852E1,-3.629455566E-1
1.961501523E0,3.174133301E-1,1.000970459E1,-3.557739258E-1
1.964003964E0,3.652954102E-1,1.005039978E1,-3.414001465E-1
1.966506406E0,3.293914795E-1,1.010067749E1,-3.174591064E-1
1.968978329E0,3.269958496E-1,1.019406128E1,-3.677368164E-1
1.971480771E0,3.557281494E-1,1.024194336E1,-3.605499268E-1
1.973983212E0,3.652954102E-1,1.023715210E1,-3.844909668E-1
1.976485654E0,3.844604492E-1,1.023954773E1,-3.246459961E-1
1.978988095E0,4.131774902E-1,1.026588440E1,-3.054962158E-1
1.981490536E0,4.203643799E-1,1.030657959E1,-2.073211670E-1
1.983992978E0,4.921875000E-1,1.031376648E1,-2.001495361E-1
1.986495419E0,4.610748291E-1,1.024913025E1,-1.786041260E-1
1.988997861E0,4.060058594E-1,1.021321106E1,-1.307067871E-1
1.991500302E0,4.012145996E-1,1.016532898E1,-1.354980469E-1
1.994002743E0,3.341827393E-1,1.013180542E1,-1.402893066E-1
1.996505185E0,3.054504395E-1,1.007673645E1,-8.042907715E-2
1.999007626E0,2.743225098E-1,1.003125000E1,-1.331024170E-1
2.001510068E0,2.695312500E-1,9.973785400E0,-1.450805664E-1
2.004012509E0,2.862854004E-1,9.973785400E0,-1.929626465E-1
2.006514950E0,3.006591797E-1,9.957031250E0,-2.169036865E-1
2.009017392E0,2.551727295E-1,9.930694580E0,-2.408447266E-1
2.011519833E0,1.833343506E-1,9.945053101E0,-2.528228760E-1
2.014022275E0,3.010559082E-2,9.980972290E0,-2.121124268E-1
2.016524716E0,6.602478027E-2,9.968994141E0,-2.408447266E-1
2.019027157E0,1.809539795E-1,9.866058350E0,-2.743682861E-1
2.021529599E0,1.881256104E-1,9.834930420E0,-3.270416260E-1
2.024032040E0,1.905212402E-1,9.846893311E0,-4.180145264E-1
2.026534482E0,1.498260498E-1,9.897171021E0,-3.892822266E-1
2.029036923E0,1.881256104E-1,9.909149170E0,-3.437957764E-1
2.031539365E0,2.240447998E-1,9.945053101E0,-3.605499268E-1
2.034041806E0,2.288360596E-1,1.002885437E1,-2.575988770E-1
2.036574765E0,2.503814697E-1,1.003843689E1,-2.719726562E-1
2.039077206E0,3.150177002E-1,1.009828186E1,-2.887268066E-1
2.041579648E0,3.557281494E-1,1.010067749E1,-2.599945068E-1
2.044082089E0,3.652954102E-1,1.008631897E1,-3.078765869E-1
2.046584531E0,3.389587402E-1,1.001928711E1,-3.198547363E-1
2.049086972E0,3.437500000E-1,1.000012207E1,-2.623901367E-1
2.051589413E0,3.293914795E-1,9.978576660E0,-2.791595459E-1
2.054091855E0,3.054504395E-1,9.928298950E0,-2.791595459E-1
2.056594296E0,3.820648193E-1,9.854080200E0,-2.384490967E-1
2.059066220E0,3.533325195E-1,9.787048340E0,-2.001495361E-1
2.061568661E0,3.246002197E-1,9.741546631E0,-2.839355469E-1
2.064071103E0,3.078460693E-1,9.717605591E0,-3.749237061E-1
2.066573544E0,3.365631104E-1,9.679306030E0,-3.892822266E-1
2.069075986E0,3.700866699E-1,9.703247070E0,-4.156188965E-1
2.071578427E0,3.796691895E-1,9.803802490E0,-4.299926758E-1
2.074080868E0,4.323425293E-1,9.777465820E0,-3.653411865E-1
2.076583310E0,4.107971191E-1,9.837326050E0,-2.552185059E-1
2.079085751E0,4.969787598E-1,9.851684570E0,-6.607055664E-2
2.081588193E0,6.693572998E-1,9.818161011E0,5.363464355E-2
2.084090634E0,6.478118896E-1,9.842102051E0,5.612182617E-1
2.086593075E0,4.323425293E-1,1.030178833E1,4.032806396E0
2.089095517E0,3.341827393E-1,1.055079651E1,4.279403687E0
2.091597958E0,3.988189697E-1,1.039756775E1,8.628845215E-1
2.094100400E0,3.293914795E-1,1.047897339E1,-1.026138306E0
2.096602841E0,2.144622803E-1,1.055319214E1,-1.629486084E0
2.099105282E0,2.288360596E-1,1.060824585E1,-1.967071533E0
2.101607724E0,2.336273193E-1,1.060107422E1,-1.923965454E0
2.104110165E0,1.833343506E-1,1.055079651E1,-1.471466064E0
2.106612607E0,1.809539795E-1,1.043107605E1,-8.896789551E-1
2.109115048E0,2.120666504E-1,1.035925293E1,-5.090026855E-1
2.111617490E0,1.713714600E-1,1.019166565E1,-1.546478271E-1
2.114119931E0,2.360076904E-1,1.008631897E1,1.293945312E-2
2.116622372E0,3.581237793E-1,9.976181030E0,-6.846618652E-2
2.119124814E0,4.251556396E-1,9.827743530E0,-3.390045166E-1
2.121627255E0,5.592346191E-1,9.767883301E0,-5.640563965E-1
2.124129697E0,6.382446289E-1,9.808593750E0,-4.228057861E-1
2.126632138E0,6.382446289E-1,9.830139160E0,-4.443511963E-1
2.129104062E0,6.406402588E-1,9.882812500E0,-5.066070557E-1
2.131606503E0,5.975341797E-1,9.899566650E0,-3.868865967E-1
2.134139462E0,5.137481689E-1,9.957031250E0,-3.868865967E-1
2.136641904E0,4.514923096E-1,9.980972290E0,-3.294372559E-1
2.139144345E0,3.748779297E-1,9.968994141E0,-2.743682861E-1
2.141646786E0,3.365631104E-1,9.945053101E0,-4.132232666E-1
2.144149228E0,3.317871094E-1,9.957031250E0,-4.467468262E-1
2.146651669E0,2.647399902E-1,9.947448730E0,-5.018157959E-1
2.149154111E0,2.695312500E-1,9.935485840E0,-6.311035156E-1
2.151656552E0,2.910766602E-1,9.995330811E0,-5.760345459E-1
2.154128476E0,3.030548096E-1,1.008631897E1,-4.922332764E-1
2.156630917E0,3.293914795E-1,1.005039978E1,-3.725280762E-1
2.159133359E0,4.395141602E-1,1.003125000E1,-3.437957764E-1
2.161635800E0,5.161285400E-1,1.004083252E1,-4.994201660E-1
2.164138241E0,4.921875000E-1,1.007194519E1,-5.688476562E-1
2.166640683E0,4.538879395E-1,1.001689148E1,-6.334991455E-1
2.169143124E0,3.892364502E-1,9.992950439E0,-6.622314453E-1
2.171645566E0,3.102416992E-1,1.002885437E1,-7.029266357E-1
2.174148007E0,3.102416992E-1,9.992950439E0,-6.789855957E-1
2.176650449E0,2.431945801E-1,9.964218140E0,-6.191253662E-1
2.179152890E0,2.240447998E-1,9.973785400E0,-6.167297363E-1
2.181655331E0,2.360076904E-1,1.000491333E1,-5.736389160E-1
2.184157773E0,2.288360596E-1,1.005519104E1,-6.334991455E-1
2.186660214E0,2.479858398E-1,1.010067749E1,-5.999755859E-1
2.189162656E0,2.479858398E-1,1.010307312E1,-6.382904053E-1
2.191665097E0,2.551727295E-1,1.018927002E1,-5.903930664E-1
2.194167538E0,2.695312500E-1,1.023715210E1,-6.454620361E-1
2.196669980E0,2.575683594E-1,1.029701233E1,-6.717987061E-1
2.199172421E0,2.527770996E-1,1.030178833E1,-6.933441162E-1
2.201674863E0,2.647399902E-1,1.029701233E1,-6.885681152E-1
2.204177304E0,2.815093994E-1,1.033052063E1,-5.640563965E-1
2.206679745E0,3.102416992E-1,1.037123108E1,-5.066070557E-1
2.209182187E0,3.317871094E-1,1.038319397E1,-4.443511963E-1
2.211684628E0,3.676910400E-1,1.031137085E1,-3.773193359E-1
2.214187070E0,3.868560791E-1,1.034489441E1,-3.390045166E-1
2.216689511E0,3.844604492E-1,1.032812500E1,-3.701324463E-1
2.219191952E0,3.126220703E-1,1.024194336E1,-3.916778564E-1
2.221694394E0,3.078460693E-1,1.026109314E1,-4.323883057E-1
2.224196835E0,2.767181396E-1,1.026828003E1,-3.821105957E-1
2.226699277E0,3.102416992E-1,1.025390625E1,-3.174591064E-1
2.229201718E0,2.982635498E-1,1.025151062E1,-2.743682861E-1
2.231704159E0,3.485412598E-1,1.029222107E1,-2.552185059E-1
2.234206601E0,3.700866699E-1,1.028263855E1,-3.102722168E-1
2.236678525E0,3.700866699E-1,1.029701233E1,-3.653411865E-1
2.239180966E0,3.916320801E-1,1.024673462E1,-4.084472656E-1
2.241683407E0,4.514923096E-1,1.025630188E1,-4.994201660E-1
2.244185849E0,4.658508301E-1,1.026588440E1,-5.209655762E-1
2.246688290E0,5.185241699E-1,1.024194336E1,-4.658966064E-1
2.249190732E0,5.281066895E-1,1.027307129E1,-4.539337158E-1
2.251693173E0,4.850158691E-1,1.031137085E1,-4.132232666E-1
2.254195615E0,4.730377197E-1,1.035925293E1,-3.797149658E-1
2.256698056E0,4.610748291E-1,1.029940796E1,-2.456359863E-1
2.259200497E0,4.874114990E-1,1.028024292E1,-1.833801270E-1
2.261702939E0,4.586791992E-1,1.034489441E1,-1.642303467E-1
2.264205380E0,4.179687500E-1,1.039756775E1,-2.312622070E-1
2.266707822E0,6.406402588E-1,1.084288025E1,-1.809844971E-1
2.269210263E0,8.896331787E-1,1.091232300E1,6.234588623E-1
2.271712704E0,2.067581177E0,1.089076233E1,1.195678711E0
2.274215146E0,3.312561035E0,1.087400818E1,1.087936401E0
2.276717587E0,2.826538086E0,1.085006714E1,6.067047119E-1
2.279220029E0,2.330947876E0,1.072796631E1,2.236328125E-1
2.281722470E0,1.940689087E0,1.056515503E1,1.565856934E-1
2.284224911E0,1.670135498E0,1.043107605E1,1.996917725E-1
2.286727353E0,1.351715088E0,1.033291626E1,3.146057129E-1
2.289229794E0,1.102722168E0,1.026588440E1,3.098144531E-1
2.291732236E0,8.082275391E-1,1.024673462E1,1.853179932E-1
2.294234677E0,6.119079590E-1,1.021800232E1,5.842590332E-2
2.296737118E0,4.012145996E-1,1.017012024E1,-1.833801270E-1
2.299239560E0,2.072906494E-1,1.018927002E1,-3.964691162E-1
2.301742001E0,6.123352051E-2,1.020123291E1,-5.185699463E-1
2.304244443E0,-2.045135498E-1,1.024673462E1,-7.723541260E-1
2.306746884E0,-5.373077393E-1,1.029222107E1,-1.016571045E0
2.309249325E0,-8.030700684E-1,1.034010315E1,-1.198532104E0
2.311751767E0,-9.610900879E-1,1.036643982E1,-1.404434204E0
2.314254208E0,-1.059249878E0,1.034010315E1,-1.490615845E0
2.316756650E0,-1.016159058E0,1.036404419E1,-1.497802734E0
2.319259091E0,-9.060211182E-1,1.037602234E1,-1.538497925E0
2.321761532E0,-7.336425781E-1,1.040473938E1,-1.409210205E0
2.324263974E0,-4.702758789E-1,1.042630005E1,-1.239227295E0
2.326766415E0,-2.140960693E-1,1.042630005E1,-8.753051758E-1
2.329268857E0,6.123352051E-2,1.035925293E1,-6.789855957E-1
2.331771298E0,2.312316895E-1,1.032812500E1,-5.281524658E-1
2.334273740E0,3.605194092E-1,1.030178833E1,-4.347839355E-1
2.336776181E0,4.682464600E-1,1.022039795E1,-4.754791260E-1
2.339278622E0,5.281066895E-1,1.009590149E1,-4.658966064E-1
2.341781064E0,6.047210693E-1,9.947448730E0,-4.395599365E-1
2.344283505E0,6.789398193E-1,9.806198120E0,-4.036560059E-1
2.346785947E0,7.723083496E-1,9.760711670E0,-2.839355469E-1
2.349288388E0,8.872375488E-1,9.705642700E0,-2.025451660E-1
2.351790829E0,9.710388184E-1,9.566772461E0,-4.931640625E-2
2.354293271E0,1.033279419E0,9.471008301E0,8.955383301E-2
2.356795712E0,1.071594238E0,9.435089111E0,1.158905029E-1
2.359298154E0,1.006942749E0,9.399185181E0,1.039123535E-1
2.361800595E0,9.375152588E-1,9.401580811E0,7.997131348E-2
2.364303036E0,8.632965088E-1,9.329742432E0,1.039123535E-1
2.366805478E0,8.441467285E-1,9.356079102E0,3.356933594E-3
2.369307919E0,8.537139893E-1,9.382415771E0,4.646301270E-2
2.371810361E0,9.159698486E-1,9.387207031E0,6.321716309E-2
2.374312802E0,9.470977783E-1,9.391998291E0,1.158905029E-1
2.376815243E0,1.014129639E0,9.437484741E0,7.519531250E-2
2.379317685E0,1.047653198E0,9.485366821E0,7.757568359E-2
2.381820126E0,1.050048828E0,9.569168091E0,-3.494262695E-2
2.384322568E0,1.009338379E0,9.624237061E0,-1.354980469E-1
2.386825009E0,1.004547119E0,9.676910400E0,-1.331024170E-1
2.389327450E0,1.006942749E0,9.708038330E0,-2.552185059E-1
2.391829892E0,9.782104492E-1,9.763107300E0,-2.863311768E-1
2.394332333E0,9.686431885E-1,9.751129150E0,-3.677368164E-1
2.396834775E0,9.830017090E-1,9.763107300E0,-3.342132568E-1
2.399337216E0,9.207611084E-1,9.806198120E0,-3.725280762E-1
2.401839657E0,9.087829590E-1,9.806198120E0,-4.060516357E-1
2.404342099E0,9.063873291E-1,9.825347900E0,-4.515380859E-1
2.406844540E0,8.728790283E-1,9.827743530E0,-5.233612061E-1
2.409346982E0,8.178100586E-1,9.803802490E0,-5.760345459E-1
2.411849423E0,7.818908691E-1,9.832534790E0,-5.999755859E-1
2.414351865E0,7.699279785E-1,9.837326050E0,-6.334991455E-1
2.416854306E0,7.818908691E-1,9.842102051E0,-7.077178955E-1
2.419356747E0,7.770996094E-1,9.763107300E0,-7.627868652E-1
2.421859189E0,7.699279785E-1,9.748733521E0,-8.130645752E-1
2.424361630E0,7.723083496E-1,9.739151001E0,-8.202362061E-1
2.426864072E0,7.388000488E-1,9.688873291E0,-8.178558350E-1
2.429335995E0,6.789398193E-1,9.688873291E0,-9.351654053E-1
2.431838437E0,6.837310791E-1,9.708038330E0,-9.686889648E-1
2.434340878E0,6.262664795E-1,9.674514771E0,-8.753051758E-1
2.436843320E0,6.286621094E-1,9.715209961E0,-9.327697754E-1
2.439345761E0,6.023254395E-1,9.722396851E0,-9.351654053E-1
2.441848202E0,5.640258789E-1,9.770278931E0,-9.519195557E-1
2.444350644E0,5.113525391E-1,9.775070190E0,-9.734649658E-1
2.446853085E0,4.610748291E-1,9.789443970E0,-9.495239258E-1
2.449355527E0,3.940277100E-1,9.822952271E0,-1.038116455E0
2.451857968E0,3.246002197E-1,9.863662720E0,-9.471282959E-1
2.454360409E0,3.317871094E-1,9.813385010E0,-9.040374756E-1
2.456862851E0,3.389587402E-1,9.818161011E0,-8.106689453E-1
2.459365292E0,3.389587402E-1,9.755920410E0,-7.460174561E-1
2.461867734E0,3.533325195E-1,9.688873291E0,-6.646270752E-1
2.464370175E0,4.299468994E-1,9.684097290E0,-6.167297363E-1
2.466872616E0,4.826202393E-1,9.650573730E0,-5.784301758E-1
2.469375058E0,5.065612793E-1,9.626632690E0,-5.736389160E-1
2.471877499E0,6.238708496E-1,9.667327881E0,-5.520935059E-1
2.474379941E0,6.334533691E-1,9.645782471E0,-5.425109863E-1
2.476882382E0,6.310577393E-1,9.667327881E0,-5.832214355E-1
2.479384824E0,6.286621094E-1,9.672119141E0,-6.789855957E-1
2.481887265E0,6.502075195E-1,9.645782471E0,-6.502532959E-1
2.484389706E0,6.741485596E-1,9.645782471E0,-6.023712158E-1
2.486892148E0,6.693572998E-1,9.676910400E0,-5.520935059E-1
2.489394589E0,6.526031494E-1,9.681701660E0,-5.496978760E-1
2.491897031E0,6.454162598E-1,9.696060181E0,-5.760345459E-1
2.494399472E0,6.166992188E-1,9.720001221E0,-5.664520264E-1
2.496901913E0,6.023254395E-1,9.739151001E0,-5.401153564E-1
2.499404355E0,6.214752197E-1,9.767883301E0,-5.329437256E-1
2.501906796E0,6.190795898E-1,9.803802490E0,-4.587249756E-1
2.504409238E0,6.071166992E-1,9.822952271E0,-4.587249756E-1
2.506911679E0,5.089569092E-1,9.878021240E0,-4.778747559E-1
2.509414120E0,4.323425293E-1,9.889999390E0,-4.826660156E-1
2.511916562E0,4.012145996E-1,9.901962280E0,-4.132232666E-1
2.514388486E0,3.772735596E-1,9.918716431E0,-4.539337158E-1
2.516890927E0,3.676910400E-1,9.933090210E0,-4.730834961E-1
2.519393368E0,3.844604492E-1,9.942672729E0,-5.066070557E-1
2.521895810E0,3.796691895E-1,9.916336060E0,-5.233612061E-1
2.524398251E0,3.772735596E-1,9.901962280E0,-5.425109863E-1
2.526900693E0,3.748779297E-1,9.921112061E0,-5.999755859E-1
2.529403134E0,4.036102295E-1,9.916336060E0,-6.717987061E-1
2.531905575E0,3.844604492E-1,9.854080200E0,-7.460174561E-1
2.534408017E0,3.724822998E-1,9.849288940E0,-8.968505859E-1
2.536910458E0,3.676910400E-1,9.885208130E0,-9.040374756E-1
2.539412900E0,4.179687500E-1,9.882812500E0,-8.729095459E-1
2.541915341E0,4.730377197E-1,9.901962280E0,-8.130645752E-1
2.544417782E0,4.754333496E-1,9.868438721E0,-8.394012451E-1
2.546920224E0,4.778289795E-1,9.844497681E0,-8.561553955E-1
2.549422665E0,4.131774902E-1,9.839721680E0,-8.034820557E-1
2.551925107E0,4.060058594E-1,9.875625610E0,-7.938995361E-1
2.554427548E0,4.706420898E-1,9.875625610E0,-7.555999756E-1
2.556929990E0,5.017700195E-1,9.839721680E0,-7.149047852E-1
2.559432431E0,5.424652100E-1,9.889999390E0,-6.789855957E-1
2.561934872E0,5.472564697E-1,9.918716431E0,-6.670074463E-1
2.564437314E0,5.448608398E-1,9.945053101E0,-6.382904053E-1
2.566939755E0,5.496520996E-1,9.961822510E0,-6.239166260E-1
2.569442197E0,6.071166992E-1,9.966613770E0,-6.909637451E-1
2.571944638E0,5.951385498E-1,9.959426880E0,-6.837768555E-1
2.574416562E0,5.855712891E-1,9.945053101E0,-6.574401855E-1
2.576919003E0,5.376892090E-1,9.930694580E0,-7.172851562E-1
2.579451962E0,5.448608398E-1,9.959426880E0,-6.813812256E-1
2.581954404E0,5.592346191E-1,9.964218140E0,-6.119537354E-1
2.584456845E0,5.209197998E-1,9.945053101E0,-5.473022461E-1
2.586959286E0,5.305023193E-1,9.966613770E0,-4.658966064E-1
2.589461728E0,5.472564697E-1,1.000491333E1,-4.419555664E-1
2.591964169E0,5.544433594E-1,9.976181030E0,-4.323883057E-1
2.594466611E0,5.400848389E-1,9.961822510E0,-4.682922363E-1
2.596969052E0,6.119079590E-1,9.983367920E0,-4.395599365E-1
2.599471493E0,6.573944092E-1,9.947448730E0,-4.778747559E-1
2.601973935E0,6.382446289E-1,9.925903320E0,-4.132232666E-1
2.604445859E0,6.717529297E-1,9.851684570E0,-4.228057861E-1
2.606948300E0,6.909179688E-1,9.866058350E0,-4.539337158E-1
2.609481259E0,7.172546387E-1,9.878021240E0,-4.419555664E-1
2.611983700E0,7.651367188E-1,9.827743530E0,-4.060516357E-1
2.614486142E0,7.340087891E-1,9.866058350E0,-3.725280762E-1
2.616988583E0,7.244262695E-1,9.918716431E0,-3.988647461E-1
2.619491025E0,7.316131592E-1,9.892379761E0,-3.916778564E-1
2.621993466E0,7.052764893E-1,9.945053101E0,-4.443511963E-1
2.624495907E0,7.052764893E-1,9.971389771E0,-4.467468262E-1
2.626998349E0,7.196502686E-1,1.005039978E1,-5.233612061E-1
2.629500790E0,7.004852295E-1,1.016532898E1,-5.568847656E-1
2.632003232E0,6.813354492E-1,1.022279358E1,-5.640563965E-1
2.634505673E0,7.914733887E-1,1.034489441E1,-5.496978760E-1
2.637008115E0,9.566650391E-1,1.041911316E1,-4.563293457E-1
2.639510556E0,1.073989868E0,1.052685547E1,-3.701324463E-1
2.642012997E0,9.806060791E-1,1.064656067E1,-3.174591064E-1
2.644515439E0,7.842864990E-1,1.075190735E1,-4.611053467E-1
2.647017880E0,5.664062500E-1,1.087161255E1,-5.568847656E-1
2.649520322E0,3.126220703E-1,1.104399109E1,-6.813812256E-1
2.652022763E0,1.498260498E-1,1.117807007E1,-7.196807861E-1
2.654525204E0,6.842041016E-2,1.132650757E1,-6.406707764E-1
2.657027646E0,3.489685059E-2,1.136482239E1,-5.185699463E-1
2.659530087E0,3.968811035E-2,1.142468262E1,-4.275970459E-1
2.662032529E0,3.968811035E-2,1.146537781E1,-3.916778564E-1
2.664504452E0,-1.007080078E-3,1.155635071E1,-2.743682861E-1
2.667037411E0,-5.847167969E-2,1.155397034E1,-1.833801270E-1
2.669539853E0,-1.446685791E-1,1.163058472E1,-1.929626465E-1
2.672042294E0,-2.883148193E-1,1.173114014E1,-2.097167969E-1
2.674544736E0,-4.391479492E-1,1.178381348E1,-2.552185059E-1
2.677047177E0,-5.444946289E-1,1.182450867E1,-2.504272461E-1
2.679549618E0,-6.713867188E-1,1.188914490E1,-3.150634766E-1
2.682052060E0,-6.905364990E-1,1.195858765E1,-2.959136963E-1
2.684554501E0,-7.192687988E-1,1.204956055E1,-3.581695557E-1
2.687056943E0,-8.198242188E-1,1.212617493E1,-3.366088867E-1
2.689559384E0,-8.102569580E-1,1.210942078E1,-3.653411865E-1
2.692061825E0,-8.246154785E-1,1.212138367E1,-3.437957764E-1
2.694564267E0,-8.413696289E-1,1.218124390E1,-3.821105957E-1
2.697066708E0,-8.557434082E-1,1.215490723E1,-3.246459961E-1
2.699569150E0,-8.341979980E-1,1.220278931E1,-2.743682861E-1
2.702071591E0,-8.389892578E-1,1.219560242E1,-1.833801270E-1
2.704543515E0,-8.389892578E-1,1.222433472E1,-1.522674561E-1
2.707045956E0,-8.150482178E-1,1.218843079E1,-1.762084961E-1
2.709548398E0,-8.198242188E-1,1.223391724E1,-1.139526367E-1
2.712050839E0,-8.677062988E-1,1.228898621E1,-9.719848633E-2
2.714553281E0,-9.108123779E-1,1.225785828E1,-1.474761963E-1
2.717055722E0,-9.586944580E-1,1.230813599E1,-1.450805664E-1
2.719558163E0,-1.004180908E0,1.228179932E1,-1.067657471E-1
2.722060605E0,-1.008972168E0,1.226744080E1,-8.282470703E-2
2.724563046E0,-1.013763428E0,1.220518494E1,-6.367492676E-2
2.727065488E0,-1.016159058E0,1.213336182E1,-3.733825684E-2
2.729567929E0,-9.826354980E-1,1.210462952E1,-2.775573730E-2
2.732070370E0,-9.778442383E-1,1.199449158E1,-3.015136719E-2
2.734572812E0,-9.299621582E-1,1.185563660E1,-1.818847656E-2
2.737075253E0,-9.060211182E-1,1.176704407E1,3.448486328E-2
2.739577695E0,-8.724975586E-1,1.169282532E1,1.293945312E-2
2.742080136E0,-9.156036377E-1,1.158029175E1,8.148193359E-3
2.744582577E0,-9.179840088E-1,1.148452759E1,2.729797363E-2
2.747085019E0,-9.227752686E-1,1.141749573E1,-6.210327148E-3
2.749587460E0,-9.802398682E-1,1.134327698E1,4.646301270E-2
2.752089902E0,-9.515075684E-1,1.130975342E1,8.715820312E-2
2.754592343E0,-9.874267578E-1,1.124272156E1,1.326446533E-1
2.757094784E0,-9.802398682E-1,1.121638489E1,1.278533936E-1
2.759597226E0,-9.945983887E-1,1.124511719E1,1.589813232E-1
2.762099667E0,-1.001785278E0,1.117327881E1,2.068634033E-1
2.764602109E0,-9.706573486E-1,1.113018799E1,2.260284424E-1
2.767104550E0,-1.016159058E0,1.104161072E1,2.547607422E-1
2.769606991E0,-1.006576538E0,1.098414612E1,2.619323730E-1
2.772109433E0,-1.109527588E0,1.094343567E1,2.787017822E-1
2.774611874E0,-1.176559448E0,1.086921692E1,3.457336426E-1
2.777114316E0,-1.181350708E0,1.078303528E1,3.433380127E-1
2.779616757E0,-1.207687378E0,1.069444275E1,3.361511230E-1
2.782119199E0,-1.214874268E0,1.066091919E1,3.553161621E-1
2.784621640E0,-1.214874268E0,1.057473755E1,3.792572021E-1
2.787124081E0,-1.212478638E0,1.049333191E1,3.170013428E-1
2.789626523E0,-1.269943237E0,1.043347168E1,2.930603027E-1
2.792128964E0,-1.253173828E0,1.032334900E1,2.499694824E-1
2.794600888E0,-1.296279907E0,1.022756958E1,2.236328125E-1
2.797103329E0,-1.267547607E0,1.015574646E1,2.212371826E-1
2.799605771E0,-1.241210938E0,1.007673645E1,1.589813232E-1
2.802108212E0,-1.260360718E0,9.959426880E0,1.733551025E-1
2.804610654E0,-1.291488647E0,9.875625610E0,1.853179932E-1
2.807113095E0,-1.272338867E0,9.849288940E0,1.589813232E-1
2.809615536E0,-1.296279907E0,9.753524780E0,1.278533936E-1
2.812117978E0,-1.255569458E0,9.643386841E0,1.110992432E-1
2.814620419E0,-1.234024048E0,9.612258911E0,1.182861328E-1
2.817122861E0,-1.210083008E0,9.583541870E0,1.039123535E-1
2.819625302E0,-1.226837158E0,9.526077271E0,9.674072266E-2
2.822127743E0,-1.159805298E0,9.494949341E0,9.434509277E-2
2.824630185E0,-1.145446777E0,9.451858521E0,1.350402832E-1
2.827132626E0,-1.119110107E0,9.420730591E0,1.087036133E-1
2.829635068E0,-1.044891357E0,9.413543701E0,8.715820312E-2
2.832137509E0,-9.778442383E-1,9.377639771E0,1.518096924E-1
2.834639950E0,-9.419403076E-1,9.370452881E0,8.955383301E-2
2.837142392E0,-8.748931885E-1,9.341720581E0,4.646301270E-2
2.839644833E0,-8.294067383E-1,9.368057251E0,4.406738281E-2
2.842147275E0,-7.910919189E-1,9.334533691E0,-3.015136719E-2
2.844649716E0,-7.456054688E-1,9.322570801E0,-8.522033691E-2
2.847152157E0,-7.168731689E-1,9.334533691E0,-1.690216064E-1
2.849654599E0,-7.144775391E-1,9.341720581E0,-1.450805664E-1
2.852157040E0,-6.522369385E-1,9.329742432E0,-1.881713867E-1
2.854659482E0,-6.713867188E-1,9.267501831E0,-2.049407959E-1
2.857161923E0,-6.881408691E-1,9.279464722E0,-2.312622070E-1
2.859664365E0,-7.001190186E-1,9.322570801E0,-2.001495361E-1
2.862166806E0,-6.953277588E-1,9.312988281E0,-1.642303467E-1
2.864638730E0,-7.432098389E-1,9.310592651E0,-1.402893066E-1
2.867141171E0,-7.264556885E-1,9.308197021E0,-1.666259766E-1
2.869643613E0,-7.312469482E-1,9.289047241E0,-2.288818359E-1
2.872146054E0,-7.815246582E-1,9.315383911E0,-2.552185059E-1
2.874648495E0,-8.246154785E-1,9.317779541E0,-2.552185059E-1
2.877150937E0,-9.203796387E-1,9.315383911E0,-2.959136963E-1
2.879653378E0,-9.515075684E-1,9.346511841E0,-2.456359863E-1
2.882155820E0,-9.922180176E-1,9.348907471E0,-2.671813965E-1
2.884658261E0,-1.023330688E0,9.363265991E0,-2.815551758E-1
2.887160702E0,-1.078399658E0,9.360870361E0,-2.264862061E-1
2.889663144E0,-1.121505737E0,9.351303101E0,-2.408447266E-1
2.892165585E0,-1.126281738E0,9.387207031E0,-2.408447266E-1
2.894668027E0,-1.107131958E0,9.420730591E0,-2.695770264E-1
2.897200986E0,-1.097549438E0,9.430313110E0,-2.671813965E-1
2.899703427E0,-1.068832397E0,9.473403931E0,-2.552185059E-1
2.902205868E0,-1.064041138E0,9.509307861E0,-2.336578369E-1
2.904708310E0,-9.610900879E-1,9.550018311E0,-2.288818359E-1
2.907210751E0,-9.227752686E-1,9.585922241E0,-2.001495361E-1
2.909713193E0,-8.964385986E-1,9.612258911E0,-2.145080566E-1
2.912215634E0,-8.533477783E-1,9.679306030E0,-1.642303467E-1
2.914718075E0,-8.222198486E-1,9.784652710E0,-1.570434570E-1
2.917220517E0,-7.958831787E-1,9.794219971E0,-1.402893066E-1
2.919722958E0,-7.408142090E-1,9.760711670E0,-1.522674561E-1
2.922225400E0,-7.503967285E-1,9.808593750E0,-1.378936768E-1
2.924697324E0,-7.551879883E-1,9.844497681E0,-4.692077637E-2
2.927199765E0,-7.240600586E-1,9.925903320E0,-2.775573730E-2
2.929732724E0,-7.503967285E-1,9.880416870E0,-1.818847656E-2
2.932235165E0,-7.982788086E-1,9.889999390E0,-6.210327148E-3
2.934737607E0,-8.006744385E-1,9.945053101E0,2.491760254E-2
2.937240048E0,-8.701019287E-1,1.001928711E1,-8.605957031E-3
2.939742490E0,-9.586944580E-1,1.003364563E1,-1.100158691E-2
2.942244931E0,-9.945983887E-1,1.005039978E1,3.356933594E-3
2.944747372E0,-1.023330688E0,1.009828186E1,7.997131348E-2
2.947249814E0,-1.056854248E0,1.009828186E1,1.302490234E-1
2.949752255E0,-1.083190918E0,1.007434082E1,1.302490234E-1
2.952254697E0,-1.116714478E0,1.007673645E1,1.374359131E-1
2.954757138E0,-1.116714478E0,1.009350586E1,1.853179932E-1
2.957259579E0,-1.135864258E0,9.988159180E0,2.236328125E-1
2.959762021E0,-1.133468628E0,9.978576660E0,1.541900635E-1
2.962264462E0,-1.090377808E0,9.988159180E0,1.877136230E-1
2.964766904E0,-1.078399658E0,9.945053101E0,2.475738525E-1
2.967269345E0,-1.042495728E0,9.897171021E0,2.212371826E-1
2.969771786E0,-9.634857178E-1,9.889999390E0,2.547607422E-1
2.972243710E0,-9.275665283E-1,9.849288940E0,2.427825928E-1
2.974746152E0,-8.341979980E-1,9.813385010E0,2.140502930E-1
2.977248593E0,-7.551879883E-1,9.765487671E0,2.020874023E-1
2.979751034E0,-6.378631592E-1,9.705642700E0,1.853179932E-1
2.982253476E0,-5.325317383E-1,9.597900391E0,1.925048828E-1
2.984755917E0,-4.487304688E-1,9.545227051E0,1.518096924E-1
2.987258359E0,-3.601379395E-1,9.554809570E0,1.326446533E-1
2.989760800E0,-3.002929688E-1,9.509307861E0,6.321716309E-2
2.992263241E0,-2.739562988E-1,9.514099121E0,3.208923340E-2
2.994765683E0,-2.117004395E-1,9.530868530E0,2.729797363E-2
2.997268124E0,-1.686096191E-1,9.499740601E0,4.167175293E-2
2.999770566E0,-1.662139893E-1,9.490158081E0,3.688049316E-2
3.002273007E0,-1.494598389E-1,9.456649780E0,6.800842285E-2
3.004775449E0,-9.916687012E-2,9.444671631E0,-1.100158691E-2
3.007277890E0,-8.001708984E-2,9.459030151E0,-3.733825684E-2
3.009780331E0,-5.128479004E-2,9.425521851E0,-1.818847656E-2
3.012282773E0,-6.326293945E-2,9.344116211E0,2.252197266E-2
3.014785214E0,-6.326293945E-2,9.348907471E0,1.054382324E-2
3.017287656E0,-4.171752930E-2,9.303421021E0,-6.210327148E-3
3.019790097E0,-3.453063965E-2,9.267501831E0,6.321716309E-2
3.022292538E0,-5.368041992E-2,9.243560791E0,7.757568359E-2
3.024794980E0,-2.973937988E-2,9.195678711E0,5.123901367E-2
3.027297421E0,-2.017211914E-2,9.143005371E0,4.885864258E-2
3.029799863E0,-1.058959961E-2,9.135818481E0,4.885864258E-2
3.032302304E0,-2.734375000E-2,9.119064331E0,-3.494262695E-2
3.034804745E0,-3.402709961E-3,9.087936401E0,1.533508301E-2
3.037307187E0,-3.453063965E-2,9.080749512E0,1.293945312E-2
3.039809628E0,-4.650878906E-2,9.116668701E0,1.054382324E-2
3.042312070E0,1.574707031E-2,9.119064331E0,1.293945312E-2
3.044814511E0,-5.798339844E-3,9.176513672E0,-3.814697266E-3
3.047316952E0,-5.847167969E-2,9.121459961E0,6.082153320E-2
3.049819394E0,8.560180664E-3,9.166946411E0,-3.814697266E-3
3.052321835E0,-2.255249023E-2,9.207641602E0,-3.494262695E-2
3.054824277E0,-5.607604980E-2,9.233978271E0,5.123901367E-2
3.057326718E0,-2.494812012E-2,9.286651611E0,5.603027344E-2
3.059829159E0,-1.298522949E-2,9.281860352E0,2.969360352E-2
3.062331601E0,-5.798339844E-3,9.332138062E0,-1.818847656E-2
3.064834042E0,3.489685059E-2,9.399185181E0,-2.537536621E-2
3.067336484E0,5.166625977E-2,9.396789551E0,-3.494262695E-2
3.069838925E0,3.729248047E-2,9.423126221E0,-5.409240723E-2
3.072310849E0,6.362915039E-2,9.490158081E0,-8.761596680E-2
3.074813290E0,8.038330078E-2,9.526077271E0,-1.115570068E-1
3.077315732E0,1.258850098E-1,9.538040161E0,-1.402893066E-1
3.079818173E0,1.498260498E-1,9.523681641E0,-1.043701172E-1
3.082320615E0,1.330566406E-1,9.497344971E0,-1.714172363E-1
3.084823056E0,1.330566406E-1,9.504531860E0,-1.809844971E-1
3.087325497E0,1.282806396E-1,9.490158081E0,-1.546478271E-1
3.089827939E0,9.954833984E-2,9.427917480E0,-2.097167969E-1
3.092330380E0,8.517456055E-2,9.420730591E0,-1.977539062E-1
3.094832822E0,8.277893066E-2,9.432693481E0,-2.360534668E-1
3.097335263E0,1.593933105E-1,9.384811401E0,-2.456359863E-1
3.099837704E0,8.038330078E-2,9.384811401E0,-2.575988770E-1
3.102340146E0,5.883789062E-2,9.420730591E0,-2.336578369E-1
3.104842587E0,3.729248047E-2,9.447067261E0,-2.456359863E-1
3.107345029E0,-1.058959961E-2,9.420730591E0,-2.432403564E-1
3.109847470E0,-7.284545898E-2,9.466217041E0,-2.145080566E-1
3.112349911E0,-8.001708984E-2,9.533264160E0,-2.216949463E-1
3.114852353E0,-8.001708984E-2,9.550018311E0,-1.786041260E-1
3.117354794E0,-1.183319092E-1,9.554809570E0,-1.666259766E-1
3.119857236E0,-1.757812500E-1,9.578750610E0,-1.714172363E-1
3.122359677E0,-2.308502197E-1,9.621841431E0,-1.259307861E-1
3.124862118E0,-2.811279297E-1,9.672119141E0,-1.163482666E-1
3.127364560E0,-3.266296387E-1,9.679306030E0,-9.480285645E-2
3.129867001E0,-3.122558594E-1,9.652969360E0,-4.692077637E-2
3.132369443E0,-3.409881592E-1,9.693664551E0,-3.973388672E-2
3.134871884E0,-3.625335693E-1,9.739151001E0,-7.565307617E-2
3.137374325E0,-3.170471191E-1,9.748733521E0,-3.733825684E-2
3.139876767E0,-3.098602295E-1,9.743942261E0,-9.959411621E-2
3.142379208E0,-3.553466797E-1,9.753524780E0,-8.761596680E-2
3.144881650E0,-3.457794189E-1,9.784652710E0,-1.378936768E-1
3.147384091E0,-3.625335693E-1,9.775070190E0,-1.043701172E-1
3.149886532E0,-3.242340088E-1,9.787048340E0,-1.091613770E-1
3.152388974E0,-2.811279297E-1,9.849288940E0,-9.719848633E-2
3.154860898E0,-2.619781494E-1,9.810989380E0,-1.235351562E-1
3.157363339E0,-2.835235596E-1,9.787048340E0,-9.480285645E-2
3.159865781E0,-2.284545898E-1,9.784652710E0,-1.139526367E-1
3.162368222E0,-2.021179199E-1,9.787048340E0,-1.522674561E-1
3.164870663E0,-1.566314697E-1,9.818161011E0,-1.067657471E-1
3.167373105E0,-2.069091797E-1,9.854080200E0,-1.331024170E-1
3.169875546E0,-1.662139893E-1,9.813385010E0,-1.594390869E-1
3.172377988E0,-1.207275391E-1,9.837326050E0,-9.240722656E-2
3.174880429E0,-1.135406494E-1,9.887603760E0,-3.973388672E-2
3.177382870E0,-6.805419922E-2,9.904357910E0,-3.814697266E-3
3.179885312E0,-4.171752930E-2,9.945053101E0,-5.169677734E-2
3.182387753E0,2.053833008E-2,9.925903320E0,-1.339721680E-2
3.184920712E0,7.560729980E-2,9.971389771E0,-3.254699707E-2
3.187423154E0,9.954833984E-2,1.000012207E1,5.752563477E-3
3.189925595E0,1.426391602E-1,1.001210022E1,-3.254699707E-2
3.192428036E0,2.048950195E-1,1.000251770E1,-1.339721680E-2
3.194930478E0,2.407989502E-1,9.985763550E0,2.012634277E-2
3.197432919E0,2.934722900E-1,9.954635620E0,-2.297973633E-2
3.199935361E0,3.628997803E-1,9.966613770E0,-2.297973633E-2
3.202437802E0,3.557281494E-1,9.954635620E0,-1.579284668E-2
3.204940243E0,3.557281494E-1,9.933090210E0,3.927612305E-2
3.207442685E0,4.131774902E-1,9.897171021E0,3.688049316E-2
3.209945126E0,3.964233398E-1,9.916336060E0,4.646301270E-2
3.212447568E0,4.419097900E-1,9.899566650E0,3.356933594E-3
3.214950009E0,4.921875000E-1,9.851684570E0,-8.605957031E-3
3.217452450E0,4.945831299E-1,9.827743530E0,-1.579284668E-2
3.219954892E0,5.257110596E-1,9.808593750E0,-1.818847656E-2
3.222457333E0,5.376892090E-1,9.777465820E0,1.773071289E-2
3.224959775E0,5.688018799E-1,9.753524780E0,-1.818847656E-2
3.227462216E0,6.190795898E-1,9.741546631E0,-1.339721680E-2
3.229964657E0,6.310577393E-1,9.763107300E0,-3.015136719E-2
3.232467099E0,6.526031494E-1,9.736770630E0,-8.522033691E-2
3.234969540E0,6.549987793E-1,9.729583740E0,-4.452514648E-2
3.237471982E0,7.244262695E-1,9.688873291E0,-6.127929688E-2
3.239974423E0,7.507629395E-1,9.672119141E0,-4.212951660E-2
3.242446347E0,7.842864990E-1,9.602691650E0,-9.001159668E-2
3.244948788E0,8.297729492E-1,9.609878540E0,-5.648803711E-2
3.247451230E0,8.848419189E-1,9.612258911E0,-6.367492676E-2
3.249953671E0,9.063873291E-1,9.612258911E0,-3.254699707E-2
3.252456113E0,8.824462891E-1,9.561981201E0,-7.086181641E-2
3.254958554E0,8.872375488E-1,9.590713501E0,-7.086181641E-2
3.257460995E0,8.680877686E-1,9.597900391E0,-8.605957031E-3
3.259963437E0,9.183654785E-1,9.631423950E0,-1.339721680E-2
3.262465878E0,9.638519287E-1,9.578750610E0,5.752563477E-3
3.264968320E0,9.758148193E-1,9.633819580E0,-1.579284668E-2
3.267470761E0,1.023712158E0,9.660156250E0,-1.100158691E-2
3.269973202E0,1.038070679E0,9.691268921E0,3.208923340E-2
3.272475644E0,1.062011719E0,9.731979370E0,3.927612305E-2
3.274978085E0,1.021316528E0,9.767883301E0,2.012634277E-2
3.277480527E0,1.052429199E0,9.777465820E0,2.491760254E-2
3.279982968E0,1.028488159E0,9.775070190E0,7.279968262E-2
3.282485409E0,1.011734009E0,9.775070190E0,7.757568359E-2
3.284987851E0,1.018920898E0,9.806198120E0,1.158905029E-1
3.287490292E0,9.423065186E-1,9.830139160E0,1.039123535E-1
3.289992734E0,8.728790283E-1,9.844497681E0,4.885864258E-2
3.292495175E0,8.249816895E-1,9.851684570E0,2.012634277E-2
3.294997616E0,8.273773193E-1,9.911544800E0,2.729797363E-2
3.297500058E0,7.340087891E-1,9.911544800E0,4.406738281E-2
3.300002499E0,6.765441895E-1,9.985763550E0,4.406738281E-2
3.302504941E0,6.358489990E-1,1.000012207E1,7.997131348E-2
3.305007382E0,6.262664795E-1,1.004560852E1,1.110992432E-1
3.307509824E0,5.999298096E-1,1.005279541E1,9.674072266E-2
3.310012265E0,5.879669189E-1,1.012940979E1,9.913635254E-2
3.312514706E0,5.568389893E-1,1.010786438E1,1.589813232E-1
3.315017148E0,5.376892090E-1,1.014378357E1,1.829223633E-1
3.317519589E0,4.826202393E-1,1.022279358E1,1.374359131E-1
3.320022031E0,4.131774902E-1,1.027307129E1,1.230773926E-1
3.322524472E0,4.012145996E-1,1.033291626E1,5.363464355E-2
3.325026913E0,3.269958496E-1,1.030897522E1,-1.419067383E-3
3.327529355E0,2.958679199E-1,1.036643982E1,1.054382324E-2
3.330031796E0,2.647399902E-1,1.038798523E1,8.148193359E-3
3.332534238E0,2.384033203E-1,1.040713501E1,5.842590332E-2
3.335006161E0,2.216491699E-1,1.044544983E1,7.040405273E-2
3.337508603E0,2.288360596E-1,1.051008606E1,-2.297973633E-2
3.340011044E0,2.312316895E-1,1.056515503E1,5.752563477E-3
3.342513486E0,2.575683594E-1,1.063220215E1,2.252197266E-2
3.345015927E0,2.743225098E-1,1.067768860E1,-5.169677734E-2
3.347518368E0,2.503814697E-1,1.069923401E1,-1.091613770E-1
3.350020810E0,2.168579102E-1,1.072796631E1,-1.498718262E-1
3.352523251E0,2.503814697E-1,1.078063965E1,-1.786041260E-1
3.355025693E0,2.072906494E-1,1.081893921E1,-2.647857666E-1
3.357528134E0,1.977081299E-1,1.082852173E1,-2.671813965E-1
3.360030575E0,2.096710205E-1,1.089315796E1,-3.222503662E-1
3.362533017E0,1.498260498E-1,1.089794922E1,-3.437957764E-1
3.365035458E0,1.617889404E-1,1.092907715E1,-3.174591064E-1
3.367537900E0,1.498260498E-1,1.099610901E1,-3.868865967E-1
3.370040341E0,1.354522705E-1,1.103681946E1,-3.988647461E-1
3.372542782E0,8.277893066E-2,1.104878235E1,-4.970245361E-1
3.375045224E0,2.772521973E-2,1.113737488E1,-5.449066162E-1
3.377547665E0,-3.453063965E-2,1.119483948E1,-5.401153564E-1
3.380050107E0,-9.199523926E-2,1.128102112E1,-5.090026855E-1
3.382552548E0,-1.829681396E-1,1.138876343E1,-5.616760254E-1
3.385054990E0,-2.523956299E-1,1.145819092E1,-5.520935059E-1
3.387557431E0,-3.266296387E-1,1.153959656E1,-5.568847656E-1
3.390059872E0,-3.840789795E-1,1.162339783E1,-5.592803955E-1
3.392562314E0,-4.032440186E-1,1.169522095E1,-6.167297363E-1
3.395064755E0,-4.080200195E-1,1.180296326E1,-6.598358154E-1
3.397567197E0,-4.223937988E-1,1.190112305E1,-7.220764160E-1
3.400069638E0,-4.726715088E-1,1.190112305E1,-7.579956055E-1
3.402541562E0,-4.990081787E-1,1.192985535E1,-7.867279053E-1
3.405044003E0,-4.582977295E-1,1.198970032E1,-8.106689453E-1
3.407576962E0,-4.128112793E-1,1.199688721E1,-8.202362061E-1
3.410079404E0,-4.295806885E-1,1.199688721E1,-7.986907959E-1
3.412581845E0,-4.223937988E-1,1.206393433E1,-8.322143555E-1
3.415084286E0,-4.559173584E-1,1.206871033E1,-7.962951660E-1
3.417586728E0,-3.864746094E-1,1.209504700E1,-7.915191650E-1
3.420089169E0,-4.104156494E-1,1.213096619E1,-8.058776855E-1
3.422591611E0,-4.295806885E-1,1.212138367E1,-8.130645752E-1
3.425094052E0,-3.936614990E-1,1.217645264E1,-8.489685059E-1
3.427596493E0,-4.152069092E-1,1.215969849E1,-7.915191650E-1
3.430098935E0,-4.176025391E-1,1.215730286E1,-7.627868652E-1
3.432570859E0,-4.199981689E-1,1.218124390E1,-8.082733154E-1
3.435073300E0,-4.870300293E-1,1.216688538E1,-7.579956055E-1
3.437575741E0,-5.420989990E-1,1.217645264E1,-7.340545654E-1
3.440078183E0,-5.612487793E-1,1.218363953E1,-6.765899658E-1
3.442580624E0,-6.043548584E-1,1.214772034E1,-6.574401855E-1
3.445083066E0,-6.187133789E-1,1.214294434E1,-6.167297363E-1
3.447585507E0,-6.378631592E-1,1.215730286E1,-6.622314453E-1
3.450087949E0,-6.546325684E-1,1.214532471E1,-5.927886963E-1
3.452590390E0,-6.474456787E-1,1.210702515E1,-6.239166260E-1
3.455092831E0,-6.785736084E-1,1.205914307E1,-6.263122559E-1
3.457595273E0,-7.192687988E-1,1.202082825E1,-5.832214355E-1
3.460097714E0,-7.599792480E-1,1.196337891E1,-6.143493652E-1
3.462600156E0,-7.887115479E-1,1.189872742E1,-4.970245361E-1
3.465102597E0,-8.198242188E-1,1.179817200E1,-4.898376465E-1
3.467635556E0,-8.485565186E-1,1.173353577E1,-4.826660156E-1
3.470137997E0,-8.677062988E-1,1.165930176E1,-4.108276367E-1
3.472640439E0,-8.868713379E-1,1.157312012E1,-3.605499268E-1
3.475142880E0,-9.586944580E-1,1.146298218E1,-3.270416260E-1
3.477645322E0,-9.491119385E-1,1.132650757E1,-3.318328857E-1
3.480147763E0,-9.706573486E-1,1.119961548E1,-2.575988770E-1
3.482650204E0,-1.001785278E0,1.107751465E1,-2.456359863E-1
3.485152646E0,-1.018554688E0,1.094104004E1,-2.623901367E-1
3.487655087E0,-1.006576538E0,1.082852173E1,-2.001495361E-1
3.490157529E0,-9.922180176E-1,1.067289734E1,-1.738128662E-1
3.492629452E0,-9.610900879E-1,1.052685547E1,-1.738128662E-1
3.495162411E0,-9.467163086E-1,1.039996338E1,-1.809844971E-1
3.497664853E0,-9.395446777E-1,1.028742981E1,-2.599945068E-1
3.500167294E0,-9.179840088E-1,1.018687439E1,-2.145080566E-1
3.502639218E0,-8.772888184E-1,1.002885437E1,-2.288818359E-1
3.505141659E0,-8.246154785E-1,9.933090210E0,-2.240905762E-1
3.507644101E0,-7.695465088E-1,9.868438721E0,-1.786041260E-1
3.510146542E0,-7.575836182E-1,9.765487671E0,-1.522674561E-1
3.512648984E0,-6.833648682E-1,9.708038330E0,-1.905670166E-1
3.515151425E0,-6.259002686E-1,9.669723511E0,-1.929626465E-1
3.517653866E0,-5.947723389E-1,9.633819580E0,-2.192993164E-1
3.520156308E0,-5.660400391E-1,9.638595581E0,-2.719726562E-1
3.522658749E0,-4.894256592E-1,9.557205200E0,-2.839355469E-1
3.525161191E0,-4.463348389E-1,9.583541870E0,-3.174591064E-1
3.527663632E0,-3.457794189E-1,9.593109131E0,-3.964691162E-1
3.530166074E0,-2.883148193E-1,9.564376831E0,-4.132232666E-1
3.532668515E0,-2.955017090E-1,9.535644531E0,-4.802703857E-1
3.535170956E0,-2.093048096E-1,9.528472900E0,-5.496978760E-1
3.537673398E0,-1.470642090E-1,9.523681641E0,-5.473022461E-1
3.540175839E0,-1.805725098E-1,9.528472900E0,-5.544891357E-1
3.542678281E0,-1.638183594E-1,9.518890381E0,-6.694030762E-1
3.545180722E0,-1.374816895E-1,9.509307861E0,-6.861724854E-1
3.547683163E0,-1.159362793E-1,9.492553711E0,-7.292633057E-1
3.550185605E0,-1.039581299E-1,9.499740601E0,-7.508087158E-1
3.552688046E0,-1.087493896E-1,9.490158081E0,-7.508087158E-1
3.555190488E0,-1.063537598E-1,9.451858521E0,-7.723541260E-1
3.557692929E0,-9.916687012E-2,9.396789551E0,-7.651824951E-1
3.560195370E0,-1.518402100E-1,9.394393921E0,-7.579956055E-1
3.562697812E0,-1.566314697E-1,9.425521851E0,-7.603912354E-1
3.565200253E0,-1.781768799E-1,9.430313110E0,-7.101135254E-1
3.567702695E0,-1.710052490E-1,9.444671631E0,-7.651824951E-1
3.570205136E0,-2.164916992E-1,9.459030151E0,-7.316589355E-1
3.572707577E0,-2.069091797E-1,9.439880371E0,-7.172851562E-1
3.575210019E0,-2.212829590E-1,9.425521851E0,-7.268676758E-1
3.577712460E0,-2.883148193E-1,9.451858521E0,-7.220764160E-1
3.580214902E0,-3.146514893E-1,9.420730591E0,-7.603912354E-1
3.582717343E0,-3.457794189E-1,9.406356812E0,-7.747497559E-1
3.585219784E0,-3.912658691E-1,9.396789551E0,-8.130645752E-1
3.587722226E0,-4.295806885E-1,9.375244141E0,-8.705139160E-1
3.590224667E0,-4.726715088E-1,9.346511841E0,-8.274230957E-1
3.592727109E0,-4.535217285E-1,9.356079102E0,-8.681335449E-1
3.595229550E0,-4.750671387E-1,9.372848511E0,-8.729095459E-1
3.597731991E0,-4.918212891E-1,9.336929321E0,-8.872833252E-1
3.600234433E0,-5.492858887E-1,9.317779541E0,-8.274230957E-1
3.602706357E0,-5.875854492E-1,9.363265991E0,-8.441925049E-1
3.605208798E0,-5.516815186E-1,9.353698730E0,-8.800964355E-1
3.607711240E0,-5.373077393E-1,9.370452881E0,-8.800964355E-1
3.610213681E0,-5.804138184E-1,9.368057251E0,-8.633422852E-1
3.612746640E0,-6.378631592E-1,9.444671631E0,-8.585510254E-1
3.615249081E0,-6.378631592E-1,9.466217041E0,-8.681335449E-1
3.617751523E0,-6.809692383E-1,9.490158081E0,-8.178558350E-1
3.620253964E0,-7.384185791E-1,9.518890381E0,-7.699584961E-1
3.622756406E0,-7.671508789E-1,9.564376831E0,-7.938995361E-1
3.625258847E0,-8.006744385E-1,9.614654541E0,-7.555999756E-1
3.627761288E0,-8.461608887E-1,9.681701660E0,-7.316589355E-1
3.630263730E0,-8.820800781E-1,9.736770630E0,-7.220764160E-1
3.632735654E0,-9.491119385E-1,9.791824341E0,-7.220764160E-1
3.635238095E0,-9.826354980E-1,9.827743530E0,-6.789855957E-1
3.637740536E0,-1.037704468E0,9.870834351E0,-6.670074463E-1
3.640242978E0,-1.140655518E0,9.866058350E0,-6.239166260E-1
3.642745419E0,-1.152618408E0,9.892379761E0,-6.861724854E-1
3.645247861E0,-1.195724487E0,9.923507690E0,-6.406707764E-1
3.647750302E0,-1.250778198E0,9.933090210E0,-5.473022461E-1
3.650252743E0,-1.286697388E0,9.997726440E0,-5.520935059E-1
3.652755185E0,-1.303451538E0,9.992950439E0,-5.425109863E-1
3.655257626E0,-1.351348877E0,9.990554810E0,-5.784301758E-1
3.657760068E0,-1.348953247E0,1.000012207E1,-5.975799561E-1
3.660262509E0,-1.291488647E0,1.003125000E1,-6.215209961E-1
3.662764950E0,-1.305847168E0,1.001928711E1,-6.885681152E-1
3.665267392E0,-1.284301758E0,1.002885437E1,-7.149047852E-1
3.667769833E0,-1.202896118E0,1.002406311E1,-7.460174561E-1
3.670272275E0,-1.155014038E0,9.968994141E0,-6.813812256E-1
3.672744199E0,-1.087982178E0,9.909149170E0,-7.508087158E-1
3.675246640E0,-1.018554688E0,9.839721680E0,-8.010864258E-1
3.677779599E0,-9.084167480E-1,9.799011230E0,-7.843322754E-1
3.680282040E0,-7.863159180E-1,9.767883301E0,-7.986907959E-1
3.682784482E0,-6.929321289E-1,9.669723511E0,-8.753051758E-1
3.685286923E0,-5.947723389E-1,9.600296021E0,-8.394012451E-1
3.687789365E0,-4.463348389E-1,9.504531860E0,-8.657379150E-1
3.690291806E0,-3.385925293E-1,9.444671631E0,-8.561553955E-1
3.692794247E0,-2.739562988E-1,9.389602661E0,-8.274230957E-1
3.695296689E0,-1.925506592E-1,9.320175171E0,-9.160156250E-1
3.697799130E0,-1.159362793E-1,9.212432861E0,-9.375610352E-1
3.700301572E0,-9.678649902E-2,9.126235962E0,-9.136199951E-1
3.702804013E0,-3.932189941E-2,9.068786621E0,-9.303741455E-1
3.705306454E0,6.602478027E-2,9.013717651E0,-9.064331055E-1
3.707808896E0,8.517456055E-2,8.951461792E0,-8.777008057E-1
3.710280820E0,1.139068604E-1,8.927520752E0,-8.681335449E-1
3.712783261E0,1.210937500E-1,8.867675781E0,-9.543151855E-1
3.715285702E0,2.024993896E-1,8.843719482E0,-9.447479248E-1
3.717788144E0,2.240447998E-1,8.803024292E0,-9.016418457E-1
3.720290585E0,2.407989502E-1,8.834152222E0,-9.519195557E-1
3.722793027E0,2.360076904E-1,8.812606812E0,-8.920745850E-1
3.725295468E0,2.958679199E-1,8.781478882E0,-8.346099854E-1
3.727797909E0,2.910766602E-1,8.803024292E0,-8.753051758E-1
3.730300351E0,2.910766602E-1,8.834152222E0,-8.250274658E-1
3.732802792E0,3.150177002E-1,8.858093262E0,-8.298187256E-1
3.735305234E0,3.150177002E-1,8.910766602E0,-8.202362061E-1
3.737807675E0,2.958679199E-1,8.925125122E0,-7.460174561E-1
3.740310116E0,3.078460693E-1,9.044845581E0,-7.532043457E-1
3.742812558E0,3.126220703E-1,9.099899292E0,-7.867279053E-1
3.745314999E0,3.293914795E-1,9.147796631E0,-7.747497559E-1
3.747817441E0,2.815093994E-1,9.176513672E0,-7.962951660E-1
3.750319882E0,2.623443604E-1,9.212432861E0,-7.986907959E-1
3.752852841E0,2.599487305E-1,9.245956421E0,-7.675781250E-1
3.755355282E0,2.216491699E-1,9.281860352E0,-7.771453857E-1
3.757857724E0,1.426391602E-1,9.315383911E0,-7.675781250E-1
3.760360165E0,1.091156006E-1,9.370452881E0,-7.843322754E-1
3.762862607E0,1.234893799E-1,9.389602661E0,-8.058776855E-1
3.765365048E0,5.644226074E-2,9.423126221E0,-8.322143555E-1
3.767867490E0,3.729248047E-2,9.454254150E0,-8.322143555E-1
3.770369931E0,2.293395996E-2,9.499740601E0,-8.274230957E-1
3.772872372E0,3.010559082E-2,9.447067261E0,-8.178558350E-1
3.775374814E0,1.335144043E-2,9.449462891E0,-8.202362061E-1
3.777877255E0,3.729248047E-2,9.487762451E0,-8.370056152E-1
3.780379697E0,3.010559082E-2,9.425521851E0,-8.585510254E-1
3.782882138E0,4.208374023E-2,9.432693481E0,-8.968505859E-1
3.785384579E0,2.053833008E-2,9.449462891E0,-9.208068848E-1
3.787887021E0,4.208374023E-2,9.423126221E0,-9.208068848E-1
3.790389462E0,4.927062988E-2,9.432693481E0,-8.872833252E-1
3.792891904E0,4.208374023E-2,9.480590820E0,-9.423522949E-1
3.795394345E0,3.250122070E-2,9.437484741E0,-8.944702148E-1
3.797896786E0,5.166625977E-2,9.468612671E0,-8.729095459E-1
3.800399228E0,2.532958984E-2,9.518890381E0,-8.944702148E-1
3.802871152E0,5.883789062E-2,9.480590820E0,-9.112243652E-1
3.805373593E0,5.166625977E-2,9.502136230E0,-8.585510254E-1
3.807876034E0,1.574707031E-2,9.497344971E0,-8.513641357E-1
3.810378476E0,4.447937012E-2,9.506927490E0,-8.657379150E-1
3.812880917E0,3.729248047E-2,9.514099121E0,-8.537597656E-1
3.815383359E0,-3.402709961E-3,9.533264160E0,-8.753051758E-1
3.817885800E0,2.053833008E-2,9.492553711E0,-8.753051758E-1
3.820388241E0,-3.402709961E-3,9.485366821E0,-9.399566650E-1
3.822890683E0,-2.017211914E-2,9.511703491E0,-8.657379150E-1
3.825393124E0,-3.213500977E-2,9.540435791E0,-8.657379150E-1
3.827895566E0,-2.255249023E-2,9.506927490E0,-9.471282959E-1
3.830398007E0,-4.888916016E-2,9.478195190E0,-8.872833252E-1
3.832900449E0,-8.001708984E-2,9.454254150E0,-8.920745850E-1
3.835402890E0,-3.453063965E-2,9.523681641E0,-9.543151855E-1
3.837905331E0,-4.650878906E-2,9.490158081E0,-9.327697754E-1
3.840407773E0,-6.086730957E-2,9.518890381E0,-9.160156250E-1
3.842910214E0,-8.720397949E-2,9.526077271E0,-9.231872559E-1
3.845412656E0,-9.199523926E-2,9.518890381E0,-9.615020752E-1
3.847915097E0,-8.720397949E-2,9.502136230E0,-9.423522949E-1
3.850417538E0,-6.565856934E-2,9.576354980E0,-9.064331055E-1
3.852919980E0,-4.888916016E-2,9.597900391E0,-9.303741455E-1
3.855422421E0,-5.607604980E-2,9.595504761E0,-8.848876953E-1
3.857924863E0,-7.044982910E-2,9.617050171E0,-8.274230957E-1
3.860427304E0,-2.973937988E-2,9.597900391E0,-7.938995361E-1
3.862929745E0,8.560180664E-3,9.617050171E0,-7.555999756E-1
3.865432187E0,6.123352051E-2,9.600296021E0,-8.034820557E-1
3.867934628E0,1.067199707E-1,9.617050171E0,-8.394012451E-1
3.870437070E0,1.163024902E-1,9.645782471E0,-8.441925049E-1
3.872939511E0,1.258850098E-1,9.621841431E0,-7.843322754E-1
3.875411435E0,1.641845703E-1,9.602691650E0,-8.226318359E-1
3.877913876E0,1.977081299E-1,9.593109131E0,-7.819366455E-1
3.880416318E0,2.096710205E-1,9.554809570E0,-7.699584961E-1
3.882918759E0,2.479858398E-1,9.552413940E0,-7.292633057E-1
3.885421200E0,2.312316895E-1,9.557205200E0,-7.484130859E-1
3.887923642E0,2.719268799E-1,9.571563721E0,-7.579956055E-1
3.890426083E0,3.246002197E-1,9.602691650E0,-8.058776855E-1
3.892928525E0,3.676910400E-1,9.542831421E0,-8.178558350E-1
3.895430966E0,3.964233398E-1,9.535644531E0,-7.723541260E-1
3.897933407E0,4.227600098E-1,9.597900391E0,-8.298187256E-1
3.900435849E0,4.730377197E-1,9.593109131E0,-8.394012451E-1
3.902938290E0,5.496520996E-1,9.626632690E0,-7.316589355E-1
3.905440732E0,5.688018799E-1,9.664932251E0,-7.771453857E-1
3.907943173E0,5.855712891E-1,9.657760620E0,-8.178558350E-1
3.910445615E0,6.909179688E-1,9.652969360E0,-7.915191650E-1
3.912948056E0,7.220306396E-1,9.652969360E0,-8.298187256E-1
3.915450497E0,7.196502686E-1,9.686492920E0,-8.824920654E-1
3.917952939E0,7.148590088E-1,9.662536621E0,-8.800964355E-1
3.920455380E0,7.196502686E-1,9.688873291E0,-8.537597656E-1
3.922957822E0,7.435913086E-1,9.710433960E0,-8.034820557E-1
3.925460263E0,7.938690186E-1,9.703247070E0,-7.364501953E-1
3.927962704E0,8.034362793E-1,9.693664551E0,-7.292633057E-1
3.930465146E0,8.393554688E-1,9.729583740E0,-7.532043457E-1
3.932967587E0,8.345642090E-1,9.784652710E0,-6.909637451E-1
3.935470029E0,8.848419189E-1,9.839721680E0,-7.484130859E-1
3.937972470E0,8.872375488E-1,9.901962280E0,-7.125091553E-1
3.940474911E0,8.704833984E-1,9.945053101E0,-6.167297363E-1
3.942977353E0,9.351196289E-1,9.937881470E0,-5.784301758E-1
3.945479794E0,9.207611084E-1,9.921112061E0,-4.946289062E-1
3.947982236E0,8.848419189E-1,9.945053101E0,-5.425109863E-1
3.950484677E0,9.183654785E-1,9.995330811E0,-5.736389160E-1
3.952987118E0,9.375152588E-1,9.940277100E0,-5.281524658E-1
3.955489560E0,9.231567383E-1,9.913940430E0,-5.185699463E-1
3.957992001E0,9.039916992E-1,9.892379761E0,-4.970245361E-1
3.960494443E0,8.345642090E-1,9.866058350E0,-5.066070557E-1
3.962996884E0,8.273773193E-1,9.825347900E0,-5.066070557E-1
3.965499325E0,8.345642090E-1,9.830139160E0,-4.826660156E-1
3.968001767E0,7.938690186E-1,9.842102051E0,-4.730834961E-1
3.970504208E0,7.699279785E-1,9.866058350E0,-4.898376465E-1
3.973006650E0,7.699279785E-1,9.868438721E0,-4.515380859E-1
3.975478574E0,7.531585693E-1,9.851684570E0,-4.826660156E-1
3.977981015E0,7.004852295E-1,9.911544800E0,-4.587249756E-1
3.980483456E0,7.459716797E-1,9.918716431E0,-4.922332764E-1
3.982985898E0,7.292175293E-1,9.925903320E0,-4.682922363E-1
3.985488339E0,8.130187988E-1,9.971389771E0,-4.467468262E-1
3.987990781E0,8.872375488E-1,9.973785400E0,-4.108276367E-1
3.990493222E0,9.518737793E-1,1.003843689E1,-4.084472656E-1
3.992995663E0,1.011734009E0,1.011505127E1,-4.323883057E-1
3.995498105E0,1.088348389E0,1.010067749E1,-4.323883057E-1
3.998000546E0,1.133834839E0,1.013659668E1,-4.587249756E-1
4.000502988E0,1.124267578E0,1.015335083E1,-5.425109863E-1
4.003005429E0,1.164962769E0,1.017729187E1,-6.574401855E-1
4.005507870E0,1.205673218E0,1.018927002E1,-7.077178955E-1
4.008010312E0,1.241577148E0,1.016772461E1,-6.574401855E-1
4.010512753E0,1.301437378E0,1.016772461E1,-6.095581055E-1
4.013015195E0,1.284667969E0,1.023236084E1,-6.981353760E-1
4.015517636E0,1.291854858E0,1.022039795E1,-7.077178955E-1
4.018020077E0,1.294250488E0,1.022756958E1,-7.938995361E-1
4.020522519E0,1.253555298E0,1.022756958E1,-8.034820557E-1
4.023024960E0,1.227218628E0,1.025151062E1,-8.130645752E-1
4.025527402E0,1.203277588E0,1.027784729E1,-8.082733154E-1
4.028029843E0,1.164962769E0,1.030897522E1,-7.627868652E-1
4.030532284E0,1.045257568E0,1.033770752E1,-6.957397461E-1
4.033034726E0,1.004547119E0,1.036404419E1,-6.334991455E-1
4.035537167E0,9.566650391E-1,1.041192627E1,-6.263122559E-1
4.038039609E0,9.183654785E-1,1.039756775E1,-5.999755859E-1
4.040542050E0,8.178100586E-1,1.041192627E1,-5.281524658E-1
4.043044491E0,7.507629395E-1,1.044784546E1,-4.778747559E-1
4.045577450E0,7.268218994E-1,1.046220398E1,-5.281524658E-1
4.048079892E0,7.172546387E-1,1.047178650E1,-5.257568359E-1
4.050582333E0,6.956939697E-1,1.047178650E1,-5.209655762E-1
4.053084775E0,5.855712891E-1,1.050769043E1,-5.113983154E-1
4.055587216E0,5.520477295E-1,1.051966858E1,-5.473022461E-1
4.058059140E0,5.257110596E-1,1.058909607E1,-5.257568359E-1
4.060561581E0,5.257110596E-1,1.066331482E1,-6.023712158E-1
4.063064023E0,4.467010498E-1,1.068965149E1,-6.741943359E-1
4.065566464E0,3.844604492E-1,1.078781128E1,-7.149047852E-1
4.068068906E0,3.796691895E-1,1.083570862E1,-8.370056152E-1
4.070571347E0,3.365631104E-1,1.092428589E1,-9.064331055E-1
4.073073788E0,2.862854004E-1,1.104878235E1,-8.753051758E-1
4.075576230E0,2.839050293E-1,1.113258362E1,-8.489685059E-1
4.078078671E0,2.671356201E-1,1.122834778E1,-9.112243652E-1
4.080581113E0,2.407989502E-1,1.132890320E1,-8.777008057E-1
4.083083554E0,1.905212402E-1,1.141989136E1,-9.615020752E-1
4.085585995E0,1.713714600E-1,1.156832886E1,-9.255828857E-1
4.088088437E0,1.186981201E-1,1.164494324E1,-8.537597656E-1
4.090590878E0,4.208374023E-2,1.175508118E1,-8.441925049E-1
4.093093320E0,-3.692626953E-2,1.181971741E1,-8.705139160E-1
4.095595761E0,-1.207275391E-1,1.194181824E1,-7.819366455E-1
4.098098202E0,-1.973419189E-1,1.202082825E1,-7.723541260E-1
4.100600644E0,-2.452239990E-1,1.202082825E1,-7.986907959E-1
4.103103085E0,-3.625335693E-1,1.206153870E1,-7.340545654E-1
4.105605527E0,-4.654846191E-1,1.209027100E1,-7.172851562E-1
4.108107968E0,-5.085754395E-1,1.213575745E1,-7.196807861E-1
4.110610409E0,-6.067504883E-1,1.219082642E1,-7.436218262E-1
4.113112851E0,-6.737823486E-1,1.226025391E1,-7.172851562E-1
4.115615292E0,-7.623748779E-1,1.229855347E1,-7.484130859E-1
4.118117734E0,-8.318023682E-1,1.231053162E1,-7.532043457E-1
4.120620175E0,-9.132080078E-1,1.232968140E1,-8.154602051E-1
4.123122616E0,-9.275665283E-1,1.237995911E1,-8.034820557E-1
4.125625058E0,-9.251708984E-1,1.236320496E1,-6.861724854E-1
4.128127499E0,-9.562988281E-1,1.239433289E1,-6.933441162E-1
4.130629941E0,-9.730529785E-1,1.240869141E1,-7.555999756E-1
4.133132382E0,-1.008972168E0,1.242306519E1,-6.765899658E-1
4.135604306E0,-1.059249878E0,1.243263245E1,-6.717987061E-1
4.138106747E0,-1.011367798E0,1.246615601E1,-6.909637451E-1
4.140609189E0,-9.850311279E-1,1.249728394E1,-6.717987061E-1
4.143111630E0,-1.016159058E0,1.245896912E1,-5.975799561E-1
4.145614072E0,-1.018554688E0,1.245417786E1,-5.449066162E-1
4.148116513E0,-1.028121948E0,1.242066956E1,-4.850616455E-1
4.150618954E0,-1.037704468E0,1.240150452E1,-4.228057861E-1
4.153121396E0,-1.052062988E0,1.237278748E1,-3.198547363E-1
4.155623837E0,-1.020935059E0,1.234645081E1,-2.097167969E-1
4.158126279E0,-1.037704468E0,1.225785828E1,-1.522674561E-1
4.160628720E0,-1.049667358E0,1.220039368E1,-7.086181641E-2
4.163131161E0,-1.109527588E0,1.215730286E1,3.356933594E-3
4.165633603E0,-1.145446777E0,1.213575745E1,4.646301270E-2
4.168136044E0,-1.145446777E0,1.208547974E1,9.434509277E-2
4.170638486E0,-1.126281738E0,1.200886536E1,1.661682129E-1
4.173140927E0,-1.123886108E0,1.193225098E1,1.996917725E-1
4.175643368E0,-1.116714478E0,1.186042786E1,2.092590332E-1
4.178145810E0,-1.107131958E0,1.172634888E1,2.284240723E-1
4.180648251E0,-1.095169067E0,1.158268738E1,2.164459229E-1
4.183150693E0,-1.107131958E0,1.148692322E1,3.026428223E-1
4.185653134E0,-1.049667358E0,1.138876343E1,2.978515625E-1
4.188155575E0,-1.020935059E0,1.127622986E1,2.954559326E-1
4.190658017E0,-9.658813477E-1,1.119483948E1,3.505249023E-1
4.193160458E0,-9.467163086E-1,1.113018799E1,3.936157227E-1
4.195662900E0,-9.275665283E-1,1.102005005E1,3.960113525E-1
4.198165341E0,-8.677062988E-1,1.094104004E1,3.696746826E-1
4.200667782E0,-8.509521484E-1,1.088119507E1,3.840332031E-1
4.203170224E0,-7.791290283E-1,1.079978943E1,3.816528320E-1
4.205672665E0,-7.599792480E-1,1.065614319E1,3.888244629E-1
4.208175107E0,-7.288513184E-1,1.056515503E1,3.888244629E-1
4.210677548E0,-7.336425781E-1,1.050531006E1,2.954559326E-1
4.213179990E0,-7.384185791E-1,1.039277649E1,3.696746826E-1
4.215682431E0,-7.623748779E-1,1.025390625E1,4.271392822E-1
4.218184872E0,-7.527923584E-1,1.022039795E1,3.505249023E-1
4.220687314E0,-7.815246582E-1,1.012701416E1,3.193969727E-1
4.223189755E0,-7.863159180E-1,1.011984253E1,2.930603027E-1
4.225692197E0,-7.887115479E-1,9.995330811E0,3.122100830E-1
4.228194638E0,-7.982788086E-1,9.952239990E0,3.289794922E-1
4.230697079E0,-7.910919189E-1,9.925903320E0,3.744659424E-1
4.233199521E0,-7.480010986E-1,9.839721680E0,3.984069824E-1
4.235701962E0,-7.456054688E-1,9.791824341E0,3.505249023E-1
4.238204404E0,-7.336425781E-1,9.736770630E0,3.576965332E-1
4.240706845E0,-6.785736084E-1,9.736770630E0,3.648834229E-1
4.243209286E0,-6.139221191E-1,9.662536621E0,3.648834229E-1
4.245711728E0,-6.187133789E-1,9.650573730E0,3.241882324E-1
4.248214169E0,-6.737823486E-1,9.605087280E0,3.529205322E-1
4.250716611E0,-6.618041992E-1,9.571563721E0,3.026428223E-1
4.253219052E0,-6.354827881E-1,9.538040161E0,3.098144531E-1
4.255721493E0,-6.570281982E-1,9.528472900E0,2.834777832E-1
4.258193417E0,-6.378631592E-1,9.504531860E0,2.810821533E-1
4.260695859E0,-6.067504883E-1,9.542831421E0,2.739105225E-1
4.263198300E0,-5.444946289E-1,9.516494751E0,2.523651123E-1
4.265700741E0,-5.037994385E-1,9.540435791E0,2.715148926E-1
4.268203183E0,-4.487304688E-1,9.554809570E0,2.834777832E-1
4.270705624E0,-4.415435791E-1,9.545227051E0,2.643280029E-1
4.273208066E0,-4.439392090E-1,9.533264160E0,3.385467529E-1
4.275710507E0,-4.511260986E-1,9.540435791E0,2.571411133E-1
4.278212949E0,-4.463348389E-1,9.538040161E0,2.691192627E-1
4.280715390E0,-4.343566895E-1,9.554809570E0,2.499694824E-1
4.283217831E0,-3.649291992E-1,9.581146240E0,2.355957031E-1
4.285720273E0,-3.721160889E-1,9.597900391E0,1.996917725E-1
4.288222714E0,-3.409881592E-1,9.583541870E0,1.877136230E-1
4.290725156E0,-3.170471191E-1,9.619445801E0,2.092590332E-1
4.293227597E0,-3.122558594E-1,9.631423950E0,1.015319824E-1
4.295730038E0,-3.553466797E-1,9.648178101E0,1.230773926E-1
4.298232480E0,-3.074645996E-1,9.686492920E0,1.398315430E-1
4.300704404E0,-3.314056396E-1,9.758316040E0,1.709594727E-1
4.303206845E0,-3.793029785E-1,9.743942261E0,1.134948730E-1
4.305739804E0,-3.888702393E-1,9.746337891E0,1.134948730E-1
4.308242245E0,-4.295806885E-1,9.787048340E0,1.230773926E-1
4.310744687E0,-4.439392090E-1,9.825347900E0,1.063079834E-1
4.313247128E0,-4.894256592E-1,9.813385010E0,9.913635254E-2
4.315749570E0,-5.037994385E-1,9.830139160E0,1.134948730E-1
4.318252011E0,-4.942169189E-1,9.806198120E0,1.565856934E-1
4.320754452E0,-5.085754395E-1,9.842102051E0,1.206817627E-1
4.323256894E0,-5.564727783E-1,9.820556641E0,8.955383301E-2
4.325759335E0,-5.444946289E-1,9.815765381E0,1.446228027E-1
4.328261777E0,-5.229492188E-1,9.803802490E0,1.230773926E-1
4.330764218E0,-5.205535889E-1,9.772674561E0,1.206817627E-1
4.333266659E0,-4.966125488E-1,9.729583740E0,1.901092529E-1
4.335769101E0,-4.582977295E-1,9.710433960E0,1.853179932E-1
4.338271542E0,-4.606933594E-1,9.662536621E0,1.925048828E-1
4.340773984E0,-4.247894287E-1,9.648178101E0,1.877136230E-1
4.343276425E0,-4.415435791E-1,9.643386841E0,1.972961426E-1
4.345778866E0,-4.606933594E-1,9.614654541E0,1.996917725E-1
4.348281308E0,-4.271850586E-1,9.597900391E0,2.068634033E-1
4.350783749E0,-4.367523193E-1,9.554809570E0,2.332000732E-1
4.353286191E0,-4.056396484E-1,9.523681641E0,2.140502930E-1
4.355788632E0,-3.457794189E-1,9.533264160E0,2.739105225E-1
4.358291074E0,-3.457794189E-1,9.535644531E0,2.834777832E-1
4.360793515E0,-3.577423096E-1,9.490158081E0,3.122100830E-1
4.363295956E0,-3.218383789E-1,9.482971191E0,3.792572021E-1
4.365798398E0,-3.481750488E-1,9.461425781E0,4.151611328E-1
4.368300839E0,-3.122558594E-1,9.490158081E0,4.343261719E-1
4.370803281E0,-2.955017090E-1,9.499740601E0,4.438934326E-1
4.373305722E0,-2.835235596E-1,9.554809570E0,4.223480225E-1
4.375808163E0,-2.356414795E-1,9.550018311E0,4.558715820E-1
4.378310605E0,-2.164916992E-1,9.552413940E0,4.582672119E-1
4.380813046E0,-1.781768799E-1,9.554809570E0,4.271392822E-1
4.383315488E0,-1.470642090E-1,9.528472900E0,4.630432129E-1
4.385817929E0,-1.231231689E-1,9.552413940E0,4.558715820E-1
4.388320370E0,-8.001708984E-2,9.559585571E0,4.654388428E-1
4.390792294E0,-8.241271973E-2,9.585922241E0,5.468444824E-1
4.393325253E0,-7.284545898E-2,9.621841431E0,5.971221924E-1
4.395827695E0,-5.128479004E-2,9.595504761E0,5.899353027E-1
4.398330136E0,-5.847167969E-2,9.597900391E0,5.899353027E-1
4.400832577E0,-5.128479004E-2,9.715209961E0,5.348815918E-1
4.403335019E0,-2.494812012E-2,9.739151001E0,5.420532227E-1
4.405837460E0,-2.494812012E-2,9.715209961E0,5.851593018E-1
4.408339902E0,-8.193969727E-3,9.727188110E0,5.707855225E-1
4.410842343E0,-3.692626953E-2,9.767883301E0,5.013580322E-1
4.413344784E0,-2.973937988E-2,9.753524780E0,5.013580322E-1
4.415847226E0,1.388549805E-3,9.767883301E0,5.037536621E-1
4.418349667E0,2.053833008E-2,9.758316040E0,5.492401123E-1
4.420821591E0,5.883789062E-2,9.708038330E0,5.276947021E-1
4.423324032E0,4.447937012E-2,9.751129150E0,5.683898926E-1
4.425826474E0,4.927062988E-2,9.703247070E0,5.205078125E-1
4.428328915E0,1.258850098E-1,9.662536621E0,5.516357422E-1
4.430831357E0,1.450347900E-1,9.619445801E0,5.540313721E-1
4.433333798E0,1.737670898E-1,9.573959351E0,5.444488525E-1
4.435836240E0,2.312316895E-1,9.523681641E0,5.468444824E-1
4.438338681E0,2.671356201E-1,9.509307861E0,5.252990723E-1
4.440841122E0,3.700866699E-1,9.461425781E0,5.229034424E-1
4.443343564E0,4.107971191E-1,9.415939331E0,5.013580322E-1
4.445846005E0,4.060058594E-1,9.382415771E0,4.534759521E-1
4.448348447E0,4.634704590E-1,9.351303101E0,4.869842529E-1
4.450850888E0,5.448608398E-1,9.301025391E0,4.271392822E-1
4.453353329E0,6.119079590E-1,9.277084351E0,4.223480225E-1
4.455855771E0,6.645812988E-1,9.214828491E0,3.457336426E-1
4.458358212E0,7.411956787E-1,9.164550781E0,3.361511230E-1
4.460860654E0,7.459716797E-1,9.111877441E0,3.481292725E-1
4.463363095E0,7.340087891E-1,9.104690552E0,3.122100830E-1
4.465865536E0,7.603454590E-1,9.054412842E0,2.763061523E-1
4.468367978E0,7.986450195E-1,9.025680542E0,2.619323730E-1
4.470870419E0,7.842864990E-1,9.030471802E0,2.810821533E-1
4.473372861E0,8.249816895E-1,9.030471802E0,2.260284424E-1
4.475875302E0,8.321685791E-1,9.023284912E0,2.308044434E-1
4.478377743E0,7.938690186E-1,8.970626831E0,2.379913330E-1
4.480880185E0,8.130187988E-1,9.030471802E0,2.427825928E-1
4.483382626E0,8.321685791E-1,9.028076172E0,2.906646729E-1
4.485885068E0,8.178100586E-1,9.063995361E0,1.829223633E-1
4.488387509E0,8.058319092E-1,9.087936401E0,1.853179932E-1
4.490889950E0,8.010406494E-1,9.116668701E0,1.972961426E-1
4.493392392E0,7.818908691E-1,9.145401001E0,1.757507324E-1
4.495894833E0,7.986450195E-1,9.181304932E0,1.398315430E-1
4.498397275E0,8.249816895E-1,9.219619751E0,9.434509277E-2
4.500899716E0,7.890777588E-1,9.241165161E0,9.674072266E-2
4.503402157E0,7.866821289E-1,9.334533691E0,6.082153320E-2
4.505904599E0,8.010406494E-1,9.324966431E0,8.715820312E-2
4.508407040E0,7.938690186E-1,9.363265991E0,8.955383301E-2
4.510909482E0,7.818908691E-1,9.423126221E0,6.561279297E-2
4.513411923E0,7.914733887E-1,9.435089111E0,6.800842285E-2
4.515914365E0,7.316131592E-1,9.506927490E0,5.363464355E-2
4.518416806E0,6.837310791E-1,9.573959351E0,4.167175293E-2
4.520919247E0,6.741485596E-1,9.624237061E0,4.646301270E-2
4.523421689E0,6.741485596E-1,9.672119141E0,5.603027344E-2
4.525924130E0,6.406402588E-1,9.767883301E0,1.293945312E-2
4.528426572E0,5.999298096E-1,9.782257080E0,7.757568359E-2
4.530898495E0,6.214752197E-1,9.801406860E0,8.715820312E-2
4.533400937E0,5.975341797E-1,9.810989380E0,7.519531250E-2
4.535903378E0,5.831756592E-1,9.789443970E0,7.519531250E-2
4.538405820E0,5.855712891E-1,9.837326050E0,1.398315430E-1
4.540908261E0,5.400848389E-1,9.801406860E0,9.194946289E-2
4.543410702E0,5.400848389E-1,9.803802490E0,1.087036133E-1
4.545913144E0,5.065612793E-1,9.755920410E0,1.374359131E-1
4.548415585E0,4.826202393E-1,9.703247070E0,7.519531250E-2
4.550918027E0,4.538879395E-1,9.700851440E0,3.448486328E-2
4.553420468E0,4.299468994E-1,9.736770630E0,8.715820312E-2
4.555922909E0,3.892364502E-1,9.748733521E0,7.040405273E-2
4.558425351E0,4.084014893E-1,9.720001221E0,9.434509277E-2
4.560927792E0,3.868560791E-1,9.684097290E0,1.015319824E-1
4.563430234E0,3.437500000E-1,9.684097290E0,1.158905029E-1
4.565932675E0,3.916320801E-1,9.655364990E0,1.398315430E-1
4.568435116E0,3.389587402E-1,9.600296021E0,8.955383301E-2
4.570937558E0,3.222045898E-1,9.578750610E0,8.236694336E-2
4.573439999E0,3.054504395E-1,9.564376831E0,9.913635254E-2
4.575942441E0,3.078460693E-1,9.504531860E0,1.110992432E-1
4.578444882E0,3.317871094E-1,9.516494751E0,1.110992432E-1
4.580947324E0,3.437500000E-1,9.442276001E0,1.326446533E-1
4.583449765E0,3.126220703E-1,9.380035400E0,1.158905029E-1
4.585952206E0,3.581237793E-1,9.358474731E0,1.087036133E-1
4.588454648E0,3.868560791E-1,9.320175171E0,1.158905029E-1
4.590926572E0,3.892364502E-1,9.253128052E0,1.446228027E-1
4.593429013E0,3.964233398E-1,9.207641602E0,1.158905029E-1
4.595931454E0,3.796691895E-1,9.178909302E0,7.279968262E-2
4.598433896E0,4.084014893E-1,9.147796631E0,9.913635254E-2
4.600936337E0,4.754333496E-1,9.099899292E0,1.230773926E-1
4.603438779E0,5.209197998E-1,9.111877441E0,1.206817627E-1
4.605941220E0,5.257110596E-1,9.080749512E0,1.063079834E-1
4.608443661E0,5.927429199E-1,9.047241211E0,1.350402832E-1
4.610976620E0,6.214752197E-1,9.030471802E0,1.949005127E-1
4.613479062E0,6.502075195E-1,9.008926392E0,1.589813232E-1
4.615981503E0,7.172546387E-1,9.018508911E0,1.589813232E-1
4.618483945E0,7.962646484E-1,9.013717651E0,2.499694824E-1
4.620986386E0,8.489227295E-1,8.973007202E0,2.164459229E-1
4.623488827E0,8.632965088E-1,9.011322021E0,2.188415527E-1
4.625991269E0,8.704833984E-1,9.049621582E0,1.518096924E-1
4.628493710E0,9.255371094E-1,9.052017212E0,2.212371826E-1
4.630996152E0,9.614562988E-1,9.032867432E0,2.212371826E-1
4.633498593E0,1.030883789E0,9.104690552E0,1.637725830E-1
4.636001034E0,1.042861938E0,9.133422852E0,1.350402832E-1
4.638503476E0,1.071594238E0,9.140609741E0,1.637725830E-1
4.641005917E0,1.050048828E0,9.243560791E0,1.541900635E-1
4.643508359E0,1.047653198E0,9.291442871E0,1.110992432E-1
4.646010800E0,1.112289429E0,9.320175171E0,1.446228027E-1
4.648513241E0,1.088348389E0,9.387207031E0,8.476257324E-2
4.651015683E0,1.114685059E0,9.468612671E0,5.363464355E-2
4.653518124E0,1.148208618E0,9.466217041E0,5.603027344E-2
4.656020566E0,1.184112549E0,9.475799561E0,2.491760254E-2
4.658523007E0,1.193695068E0,9.518890381E0,3.448486328E-2
4.661025449E0,1.181716919E0,9.545227051E0,3.356933594E-3
4.663527890E0,1.212844849E0,9.518890381E0,-1.818847656E-2
4.666030331E0,1.279891968E0,9.573959351E0,-6.367492676E-2
4.668532773E0,1.320587158E0,9.612258911E0,2.012634277E-2
4.671035214E0,1.296646118E0,9.621841431E0,4.885864258E-2
4.673537656E0,1.275100708E0,9.617050171E0,3.208923340E-2
4.676040097E0,1.282287598E0,9.636199951E0,9.613037109E-4
4.678542538E0,1.272705078E0,9.624237061E0,-7.803344727E-2
4.681044980E0,1.239181519E0,9.681701660E0,-7.803344727E-2
4.683547421E0,1.198486328E0,9.722396851E0,2.252197266E-2
4.686049863E0,1.215240479E0,9.722396851E0,2.252197266E-2
4.688552304E0,1.234390259E0,9.753524780E0,3.208923340E-2
4.691054745E0,1.150604248E0,9.777465820E0,3.448486328E-2
4.693526669E0,1.176940918E0,9.772674561E0,-1.419067383E-3
4.696029111E0,1.217636108E0,9.784652710E0,-2.775573730E-2
4.698531552E0,1.181716919E0,9.827743530E0,-4.931640625E-2
4.701033993E0,1.114685059E0,9.885208130E0,-1.100158691E-2
4.703536435E0,1.064407349E0,9.899566650E0,3.356933594E-3
4.706038876E0,1.026107788E0,9.913940430E0,-2.537536621E-2
4.708541318E0,1.004547119E0,1.002885437E1,-6.210327148E-3
4.711043759E0,9.566650391E-1,1.002166748E1,7.040405273E-2
4.713546200E0,9.399108887E-1,1.006716919E1,2.729797363E-2
4.716048642E0,8.728790283E-1,1.016053772E1,7.757568359E-2
4.718551083E0,7.890777588E-1,1.021081543E1,1.158905029E-1
4.721053525E0,7.723083496E-1,1.021081543E1,5.603027344E-2
4.723555966E0,7.459716797E-1,1.027067566E1,4.406738281E-2
4.726058407E0,7.316131592E-1,1.029461670E1,5.123901367E-2
4.728560849E0,6.933135986E-1,1.037602234E1,8.236694336E-2
4.731063290E0,6.813354492E-1,1.036883545E1,1.182861328E-1
4.733565732E0,6.526031494E-1,1.041671753E1,8.236694336E-2
4.736068173E0,6.286621094E-1,1.051487732E1,6.321716309E-2
4.738570615E0,5.927429199E-1,1.057952881E1,9.434509277E-2
4.741073056E0,5.568389893E-1,1.060586548E1,1.063079834E-1
4.743575497E0,5.759887695E-1,1.070402527E1,5.363464355E-2
4.746077939E0,5.903625488E-1,1.071598816E1,5.842590332E-2
4.748580380E0,5.496520996E-1,1.073275757E1,3.208923340E-2
4.751082822E0,5.281066895E-1,1.077824402E1,6.800842285E-2
4.753585263E0,5.879669189E-1,1.079978943E1,1.293945312E-2
4.756087704E0,5.616302490E-1,1.084288025E1,-2.537536621E-2
4.758590146E0,5.855712891E-1,1.085725403E1,-3.254699707E-2
4.761092587E0,6.071166992E-1,1.089555359E1,-6.127929688E-2
4.763595029E0,6.166992188E-1,1.090753174E1,-7.803344727E-2
4.766097470E0,6.478118896E-1,1.093386841E1,-6.846618652E-2
4.768599911E0,6.262664795E-1,1.096977234E1,-7.565307617E-2
4.771102353E0,6.717529297E-1,1.102005005E1,-1.283264160E-1
4.773604794E0,6.933135986E-1,1.102484131E1,-1.857757568E-1
4.776107236E0,6.933135986E-1,1.106555176E1,-2.025451660E-1
4.778609677E0,6.382446289E-1,1.111582947E1,-1.259307861E-1
4.781112118E0,6.262664795E-1,1.112300110E1,-2.575988770E-1
4.783584042E0,6.861267090E-1,1.121638489E1,-2.767639160E-1
4.786086484E0,6.645812988E-1,1.123313904E1,-2.839355469E-1
4.788588925E0,6.526031494E-1,1.125708008E1,-2.695770264E-1
4.791091366E0,6.262664795E-1,1.133129883E1,-2.935180664E-1
4.793593808E0,6.406402588E-1,1.135044861E1,-3.270416260E-1
4.796096249E0,5.783843994E-1,1.141749573E1,-2.575988770E-1
4.798598691E0,5.233154297E-1,1.149411011E1,-2.839355469E-1
4.801101132E0,5.089569092E-1,1.156832886E1,-2.863311768E-1
4.803603574E0,4.347381592E-1,1.163296509E1,-2.767639160E-1
4.806106015E0,4.012145996E-1,1.174549866E1,-2.552185059E-1
4.808608456E0,3.509368896E-1,1.183409119E1,-2.288818359E-1
4.811110898E0,2.336273193E-1,1.194181824E1,-2.647857666E-1
4.813613339E0,1.258850098E-1,1.209504700E1,-2.791595459E-1
4.816115781E0,5.644226074E-2,1.220997620E1,-2.815551758E-1
4.818618222E0,-1.058959961E-2,1.234165955E1,-2.408447266E-1
4.821120663E0,-1.207275391E-1,1.248291016E1,-1.809844971E-1
4.823592587E0,-2.308502197E-1,1.259304810E1,-1.905670166E-1
4.826095029E0,-2.859191895E-1,1.271275330E1,-1.426849365E-1
4.828627988E0,-3.769073486E-1,1.282049561E1,-9.001159668E-2
4.831130429E0,-4.702758789E-1,1.294259644E1,-8.042907715E-2
4.833632870E0,-5.325317383E-1,1.302639771E1,-3.015136719E-2
4.836135312E0,-5.708312988E-1,1.308625793E1,-1.818847656E-2
4.838637753E0,-6.977233887E-1,1.318681335E1,5.363464355E-2
4.841140195E0,-7.791290283E-1,1.327539062E1,1.015319824E-1
4.843642636E0,-8.533477783E-1,1.334960938E1,1.206817627E-1
4.846145077E0,-9.395446777E-1,1.339271545E1,1.278533936E-1
4.848647519E0,-1.044891357E0,1.346214294E1,9.913635254E-2
4.851149960E0,-1.097549438E0,1.352438354E1,1.422271729E-1
4.853652402E0,-1.174163818E0,1.356269836E1,1.637725830E-1
4.856154843E0,-1.226837158E0,1.351481628E1,2.068634033E-1
4.858657284E0,-1.286697388E0,1.349806213E1,2.068634033E-1
4.861159726E0,-1.308242798E0,1.349087524E1,2.284240723E-1
4.863662167E0,-1.353729248E0,1.347650146E1,1.518096924E-1
4.866164609E0,-1.365707397E0,1.339271545E1,1.685638428E-1
4.868667050E0,-1.370498657E0,1.338313293E1,1.302490234E-1
4.871169491E0,-1.387252808E0,1.339988708E1,1.350402832E-1
4.873671933E0,-1.449508667E0,1.331610107E1,1.063079834E-1
4.876174374E0,-1.404006958E0,1.328018188E1,7.040405273E-2
4.878676816E0,-1.408798218E0,1.323469543E1,1.374359131E-1
4.881179257E0,-1.404006958E0,1.315328979E1,1.661682129E-1
4.883681699E0,-1.423171997E0,1.304075623E1,1.972961426E-1
4.886184140E0,-1.475845337E0,1.296414185E1,1.996917725E-1
4.888686581E0,-1.511749268E0,1.286119080E1,1.853179932E-1
4.891158505E0,-1.576400757E0,1.274867249E1,2.379913330E-1
4.893660947E0,-1.617095947E0,1.268162537E1,2.140502930E-1
4.896163388E0,-1.667373657E0,1.260740662E1,2.164459229E-1
4.898696347E0,-1.753570557E0,1.248051453E1,3.002471924E-1
4.901198788E0,-1.815811157E0,1.242544556E1,3.146057129E-1
4.903701230E0,-1.899612427E0,1.226264954E1,3.050384521E-1
4.906203671E0,-1.952285767E0,1.212138367E1,3.193969727E-1
4.908706113E0,-2.021713257E0,1.198252869E1,2.547607422E-1
4.911208554E0,-2.040878296E0,1.178619385E1,2.427825928E-1
4.913710995E0,-2.057632446E0,1.166169739E1,2.355957031E-1
4.916213437E0,-2.086364746E0,1.144143677E1,2.284240723E-1
4.918715878E0,-2.071990967E0,1.118046570E1,1.470184326E-1
4.921218320E0,-1.997772217E0,1.093865967E1,1.661682129E-1
4.923720761E0,-1.904403687E0,1.070642090E1,1.637725830E-1
4.926223202E0,-1.837371826E0,1.044065857E1,1.589813232E-1
4.928725644E0,-1.763137817E0,1.016532898E1,1.134948730E-1
4.931228085E0,-1.667373657E0,9.901962280E0,7.279968262E-2
4.933730527E0,-1.557235718E0,9.621841431E0,7.757568359E-2
4.936232968E0,-1.392044067E0,9.351303101E0,4.646301270E-2
4.938735409E0,-1.267547607E0,9.128631592E0,-2.297973633E-2
4.941237851E0,-1.138259888E0,8.862884521E0,-5.409240723E-2
4.943740292E0,-9.419403076E-1,8.688110352E0,-1.139526367E-1
4.946242734E0,-8.222198486E-1,8.489379883E0,-1.259307861E-1
4.948745175E0,-6.737823486E-1,8.314605713E0,-1.283264160E-1
4.951247616E0,-5.061950684E-1,8.142227173E0,-1.594390869E-1
4.953750058E0,-4.367523193E-1,8.003356934E0,-1.570434570E-1
4.956252499E0,-2.523956299E-1,7.965057373E0,-1.786041260E-1
4.958754941E0,-1.135406494E-1,7.895629883E0,-2.743682861E-1
4.961257382E0,1.335144043E-2,7.830978394E0,-3.246459961E-1
4.963759824E0,1.617889404E-1,7.795059204E0,-3.102722168E-1
4.966262265E0,2.312316895E-1,7.766342163E0,-3.150634766E-1
4.968764706E0,2.647399902E-1,7.751968384E0,-3.653411865E-1
4.971267148E0,3.246002197E-1,7.826187134E0,-3.868865967E-1
4.973769589E0,3.916320801E-1,7.814224243E0,-4.084472656E-1
4.976272031E0,3.605194092E-1,7.874069214E0,-4.156188965E-1
4.978774472E0,4.131774902E-1,7.838165283E0,-4.204101562E-1
4.981276913E0,4.395141602E-1,7.866897583E0,-4.539337158E-1
4.983779355E0,3.940277100E-1,7.900405884E0,-5.425109863E-1
4.986281796E0,3.796691895E-1,8.034484863E0,-5.185699463E-1
4.988784238E0,3.844604492E-1,8.087158203E0,-4.922332764E-1
4.991286679E0,3.293914795E-1,8.135040283E0,-4.826660156E-1
4.993758603E0,2.240447998E-1,8.216445923E0,-5.209655762E-1
4.996261044E0,2.384033203E-1,8.293060303E0,-5.664520264E-1
4.998763486E0,1.498260498E-1,8.412765503E0,-5.616760254E-1
5.001265927E0,8.757019043E-2,8.475021362E0,-5.736389160E-1
5.003768368E0,4.447937012E-2,8.549240112E0,-5.760345459E-1
5.006270810E0,-1.007080078E-3,8.671340942E0,-6.071624756E-1
5.008773251E0,-3.213500977E-2,8.769500732E0,-5.784301758E-1
5.011275693E0,-1.350860596E-1,8.860488892E0,-5.496978760E-1
5.013778134E0,-1.183319092E-1,8.968231201E0,-5.185699463E-1
5.016280575E0,-1.302947998E-1,9.023284912E0,-5.329437256E-1
5.018783017E0,-1.183319092E-1,9.133422852E0,-5.401153564E-1
5.021285458E0,-9.439086914E-2,9.188491821E0,-5.257568359E-1
5.023787900E0,-1.422729492E-1,9.260314941E0,-5.927886963E-1
5.026290341E0,-1.590270996E-1,9.317779541E0,-5.664520264E-1
5.028792782E0,-1.470642090E-1,9.353698730E0,-5.975799561E-1
5.031295224E0,-1.781768799E-1,9.413543701E0,-5.760345459E-1
5.033797665E0,-1.973419189E-1,9.466217041E0,-5.808258057E-1
5.036300107E0,-2.260742188E-1,9.492553711E0,-5.568847656E-1
5.038802548E0,-3.050689697E-1,9.547622681E0,-5.329437256E-1
5.041304990E0,-3.002929688E-1,9.605087280E0,-5.185699463E-1
5.043807431E0,-3.338012695E-1,9.688873291E0,-4.970245361E-1
5.046309872E0,-3.840789795E-1,9.736770630E0,-4.323883057E-1
5.048812314E0,-4.391479492E-1,9.818161011E0,-4.491424561E-1
5.051314755E0,-5.157623291E-1,9.830139160E0,-4.635009766E-1
5.053786679E0,-5.588684082E-1,9.868438721E0,-4.036560059E-1
5.056289120E0,-6.019592285E-1,9.966613770E0,-4.275970459E-1
5.058791562E0,-7.168731689E-1,1.002166748E1,-4.012603760E-1
5.061294003E0,-7.216644287E-1,1.005039978E1,-3.749237061E-1
5.063796445E0,-7.887115479E-1,1.010307312E1,-2.887268066E-1
5.066298886E0,-8.509521484E-1,1.012461853E1,-3.102722168E-1
5.068801327E0,-8.509521484E-1,1.013659668E1,-3.078765869E-1
5.071303769E0,-9.179840088E-1,1.014138794E1,-3.533782959E-1
5.073806210E0,-8.820800781E-1,1.012222290E1,-3.198547363E-1
5.076308652E0,-8.892669678E-1,1.013659668E1,-3.892822266E-1
5.078811093E0,-8.772888184E-1,1.011505127E1,-3.533782959E-1
5.081313534E0,-8.533477783E-1,1.005758667E1,-3.749237061E-1
5.083815976E0,-8.413696289E-1,9.992950439E0,-3.485870361E-1
5.086318417E0,-8.150482178E-1,9.935485840E0,-3.725280762E-1
5.088820859E0,-7.671508789E-1,9.839721680E0,-3.701324463E-1
5.091323300E0,-6.809692383E-1,9.820556641E0,-3.653411865E-1
5.093825741E0,-6.665954590E-1,9.691268921E0,-3.988647461E-1
